# E (eV) pdos(E) 
-15.000  0.111E+02
-14.990  0.112E+02
-14.980  0.113E+02
-14.970  0.113E+02
-14.960  0.114E+02
-14.950  0.115E+02
-14.940  0.115E+02
-14.930  0.116E+02
-14.920  0.117E+02
-14.910  0.118E+02
-14.900  0.119E+02
-14.890  0.120E+02
-14.880  0.120E+02
-14.870  0.121E+02
-14.860  0.122E+02
-14.850  0.123E+02
-14.840  0.124E+02
-14.830  0.126E+02
-14.820  0.127E+02
-14.810  0.128E+02
-14.800  0.129E+02
-14.790  0.130E+02
-14.780  0.132E+02
-14.770  0.133E+02
-14.760  0.134E+02
-14.750  0.136E+02
-14.740  0.137E+02
-14.730  0.139E+02
-14.720  0.140E+02
-14.710  0.142E+02
-14.700  0.144E+02
-14.690  0.145E+02
-14.680  0.147E+02
-14.670  0.149E+02
-14.660  0.150E+02
-14.650  0.152E+02
-14.640  0.153E+02
-14.630  0.155E+02
-14.620  0.156E+02
-14.610  0.158E+02
-14.600  0.159E+02
-14.590  0.161E+02
-14.580  0.162E+02
-14.570  0.163E+02
-14.560  0.164E+02
-14.550  0.165E+02
-14.540  0.166E+02
-14.530  0.167E+02
-14.520  0.168E+02
-14.510  0.169E+02
-14.500  0.170E+02
-14.490  0.170E+02
-14.480  0.171E+02
-14.470  0.171E+02
-14.460  0.171E+02
-14.450  0.172E+02
-14.440  0.172E+02
-14.430  0.172E+02
-14.420  0.172E+02
-14.410  0.172E+02
-14.400  0.171E+02
-14.390  0.171E+02
-14.380  0.171E+02
-14.370  0.170E+02
-14.360  0.170E+02
-14.350  0.169E+02
-14.340  0.169E+02
-14.330  0.168E+02
-14.320  0.168E+02
-14.310  0.167E+02
-14.300  0.167E+02
-14.290  0.166E+02
-14.280  0.165E+02
-14.270  0.165E+02
-14.260  0.165E+02
-14.250  0.164E+02
-14.240  0.164E+02
-14.230  0.164E+02
-14.220  0.163E+02
-14.210  0.163E+02
-14.200  0.163E+02
-14.190  0.164E+02
-14.180  0.164E+02
-14.170  0.164E+02
-14.160  0.165E+02
-14.150  0.165E+02
-14.140  0.166E+02
-14.130  0.167E+02
-14.120  0.168E+02
-14.110  0.169E+02
-14.100  0.170E+02
-14.090  0.171E+02
-14.080  0.173E+02
-14.070  0.174E+02
-14.060  0.176E+02
-14.050  0.177E+02
-14.040  0.179E+02
-14.030  0.180E+02
-14.020  0.182E+02
-14.010  0.184E+02
-14.000  0.186E+02
-13.990  0.187E+02
-13.980  0.189E+02
-13.970  0.191E+02
-13.960  0.193E+02
-13.950  0.195E+02
-13.940  0.197E+02
-13.930  0.198E+02
-13.920  0.200E+02
-13.910  0.202E+02
-13.900  0.204E+02
-13.890  0.205E+02
-13.880  0.207E+02
-13.870  0.209E+02
-13.860  0.211E+02
-13.850  0.212E+02
-13.840  0.214E+02
-13.830  0.215E+02
-13.820  0.217E+02
-13.810  0.218E+02
-13.800  0.219E+02
-13.790  0.221E+02
-13.780  0.222E+02
-13.770  0.224E+02
-13.760  0.225E+02
-13.750  0.226E+02
-13.740  0.227E+02
-13.730  0.228E+02
-13.720  0.229E+02
-13.710  0.230E+02
-13.700  0.231E+02
-13.690  0.231E+02
-13.680  0.232E+02
-13.670  0.233E+02
-13.660  0.233E+02
-13.650  0.234E+02
-13.640  0.234E+02
-13.630  0.234E+02
-13.620  0.234E+02
-13.610  0.234E+02
-13.600  0.234E+02
-13.590  0.234E+02
-13.580  0.233E+02
-13.570  0.233E+02
-13.560  0.232E+02
-13.550  0.232E+02
-13.540  0.231E+02
-13.530  0.230E+02
-13.520  0.229E+02
-13.510  0.229E+02
-13.500  0.228E+02
-13.490  0.227E+02
-13.480  0.226E+02
-13.470  0.225E+02
-13.460  0.224E+02
-13.450  0.224E+02
-13.440  0.223E+02
-13.430  0.222E+02
-13.420  0.222E+02
-13.410  0.221E+02
-13.400  0.221E+02
-13.390  0.220E+02
-13.380  0.220E+02
-13.370  0.220E+02
-13.360  0.219E+02
-13.350  0.219E+02
-13.340  0.219E+02
-13.330  0.219E+02
-13.320  0.220E+02
-13.310  0.220E+02
-13.300  0.220E+02
-13.290  0.220E+02
-13.280  0.221E+02
-13.270  0.221E+02
-13.260  0.221E+02
-13.250  0.222E+02
-13.240  0.222E+02
-13.230  0.223E+02
-13.220  0.223E+02
-13.210  0.224E+02
-13.200  0.224E+02
-13.190  0.225E+02
-13.180  0.225E+02
-13.170  0.226E+02
-13.160  0.226E+02
-13.150  0.227E+02
-13.140  0.227E+02
-13.130  0.227E+02
-13.120  0.227E+02
-13.110  0.228E+02
-13.100  0.228E+02
-13.090  0.228E+02
-13.080  0.228E+02
-13.070  0.227E+02
-13.060  0.227E+02
-13.050  0.227E+02
-13.040  0.226E+02
-13.030  0.226E+02
-13.020  0.225E+02
-13.010  0.224E+02
-13.000  0.224E+02
-12.990  0.223E+02
-12.980  0.222E+02
-12.970  0.221E+02
-12.960  0.220E+02
-12.950  0.218E+02
-12.940  0.217E+02
-12.930  0.216E+02
-12.920  0.215E+02
-12.910  0.214E+02
-12.900  0.212E+02
-12.890  0.211E+02
-12.880  0.210E+02
-12.870  0.209E+02
-12.860  0.208E+02
-12.850  0.206E+02
-12.840  0.205E+02
-12.830  0.204E+02
-12.820  0.203E+02
-12.810  0.202E+02
-12.800  0.201E+02
-12.790  0.200E+02
-12.780  0.200E+02
-12.770  0.199E+02
-12.760  0.198E+02
-12.750  0.198E+02
-12.740  0.197E+02
-12.730  0.197E+02
-12.720  0.196E+02
-12.710  0.196E+02
-12.700  0.196E+02
-12.690  0.196E+02
-12.680  0.196E+02
-12.670  0.196E+02
-12.660  0.196E+02
-12.650  0.196E+02
-12.640  0.196E+02
-12.630  0.196E+02
-12.620  0.196E+02
-12.610  0.196E+02
-12.600  0.197E+02
-12.590  0.197E+02
-12.580  0.198E+02
-12.570  0.199E+02
-12.560  0.199E+02
-12.550  0.200E+02
-12.540  0.201E+02
-12.530  0.202E+02
-12.520  0.204E+02
-12.510  0.205E+02
-12.500  0.206E+02
-12.490  0.208E+02
-12.480  0.210E+02
-12.470  0.211E+02
-12.460  0.213E+02
-12.450  0.215E+02
-12.440  0.217E+02
-12.430  0.219E+02
-12.420  0.222E+02
-12.410  0.224E+02
-12.400  0.226E+02
-12.390  0.228E+02
-12.380  0.230E+02
-12.370  0.232E+02
-12.360  0.234E+02
-12.350  0.236E+02
-12.340  0.238E+02
-12.330  0.239E+02
-12.320  0.241E+02
-12.310  0.242E+02
-12.300  0.243E+02
-12.290  0.244E+02
-12.280  0.244E+02
-12.270  0.244E+02
-12.260  0.244E+02
-12.250  0.244E+02
-12.240  0.243E+02
-12.230  0.243E+02
-12.220  0.242E+02
-12.210  0.241E+02
-12.200  0.239E+02
-12.190  0.238E+02
-12.180  0.236E+02
-12.170  0.234E+02
-12.160  0.232E+02
-12.150  0.230E+02
-12.140  0.228E+02
-12.130  0.226E+02
-12.120  0.224E+02
-12.110  0.221E+02
-12.100  0.219E+02
-12.090  0.217E+02
-12.080  0.215E+02
-12.070  0.213E+02
-12.060  0.211E+02
-12.050  0.209E+02
-12.040  0.207E+02
-12.030  0.205E+02
-12.020  0.204E+02
-12.010  0.202E+02
-12.000  0.201E+02
-11.990  0.200E+02
-11.980  0.199E+02
-11.970  0.198E+02
-11.960  0.197E+02
-11.950  0.196E+02
-11.940  0.195E+02
-11.930  0.194E+02
-11.920  0.194E+02
-11.910  0.193E+02
-11.900  0.193E+02
-11.890  0.193E+02
-11.880  0.192E+02
-11.870  0.192E+02
-11.860  0.192E+02
-11.850  0.191E+02
-11.840  0.191E+02
-11.830  0.191E+02
-11.820  0.191E+02
-11.810  0.191E+02
-11.800  0.190E+02
-11.790  0.190E+02
-11.780  0.190E+02
-11.770  0.190E+02
-11.760  0.189E+02
-11.750  0.189E+02
-11.740  0.189E+02
-11.730  0.189E+02
-11.720  0.189E+02
-11.710  0.189E+02
-11.700  0.188E+02
-11.690  0.188E+02
-11.680  0.188E+02
-11.670  0.188E+02
-11.660  0.188E+02
-11.650  0.188E+02
-11.640  0.188E+02
-11.630  0.188E+02
-11.620  0.188E+02
-11.610  0.188E+02
-11.600  0.188E+02
-11.590  0.188E+02
-11.580  0.188E+02
-11.570  0.188E+02
-11.560  0.188E+02
-11.550  0.188E+02
-11.540  0.188E+02
-11.530  0.188E+02
-11.520  0.188E+02
-11.510  0.188E+02
-11.500  0.187E+02
-11.490  0.187E+02
-11.480  0.187E+02
-11.470  0.187E+02
-11.460  0.187E+02
-11.450  0.186E+02
-11.440  0.186E+02
-11.430  0.186E+02
-11.420  0.185E+02
-11.410  0.185E+02
-11.400  0.185E+02
-11.390  0.185E+02
-11.380  0.184E+02
-11.370  0.184E+02
-11.360  0.184E+02
-11.350  0.184E+02
-11.340  0.184E+02
-11.330  0.184E+02
-11.320  0.184E+02
-11.310  0.185E+02
-11.300  0.185E+02
-11.290  0.186E+02
-11.280  0.186E+02
-11.270  0.187E+02
-11.260  0.188E+02
-11.250  0.189E+02
-11.240  0.191E+02
-11.230  0.192E+02
-11.220  0.193E+02
-11.210  0.195E+02
-11.200  0.196E+02
-11.190  0.198E+02
-11.180  0.200E+02
-11.170  0.202E+02
-11.160  0.204E+02
-11.150  0.206E+02
-11.140  0.208E+02
-11.130  0.209E+02
-11.120  0.212E+02
-11.110  0.214E+02
-11.100  0.215E+02
-11.090  0.217E+02
-11.080  0.219E+02
-11.070  0.221E+02
-11.060  0.222E+02
-11.050  0.224E+02
-11.040  0.225E+02
-11.030  0.227E+02
-11.020  0.228E+02
-11.010  0.229E+02
-11.000  0.230E+02
-10.990  0.231E+02
-10.980  0.232E+02
-10.970  0.233E+02
-10.960  0.234E+02
-10.950  0.234E+02
-10.940  0.235E+02
-10.930  0.236E+02
-10.920  0.236E+02
-10.910  0.237E+02
-10.900  0.237E+02
-10.890  0.238E+02
-10.880  0.238E+02
-10.870  0.239E+02
-10.860  0.239E+02
-10.850  0.240E+02
-10.840  0.240E+02
-10.830  0.241E+02
-10.820  0.241E+02
-10.810  0.241E+02
-10.800  0.241E+02
-10.790  0.241E+02
-10.780  0.241E+02
-10.770  0.241E+02
-10.760  0.240E+02
-10.750  0.240E+02
-10.740  0.239E+02
-10.730  0.238E+02
-10.720  0.237E+02
-10.710  0.236E+02
-10.700  0.235E+02
-10.690  0.233E+02
-10.680  0.231E+02
-10.670  0.230E+02
-10.660  0.228E+02
-10.650  0.226E+02
-10.640  0.223E+02
-10.630  0.221E+02
-10.620  0.219E+02
-10.610  0.217E+02
-10.600  0.214E+02
-10.590  0.212E+02
-10.580  0.209E+02
-10.570  0.207E+02
-10.560  0.205E+02
-10.550  0.203E+02
-10.540  0.201E+02
-10.530  0.199E+02
-10.520  0.197E+02
-10.510  0.195E+02
-10.500  0.193E+02
-10.490  0.192E+02
-10.480  0.191E+02
-10.470  0.190E+02
-10.460  0.189E+02
-10.450  0.188E+02
-10.440  0.188E+02
-10.430  0.187E+02
-10.420  0.187E+02
-10.410  0.187E+02
-10.400  0.188E+02
-10.390  0.188E+02
-10.380  0.189E+02
-10.370  0.190E+02
-10.360  0.191E+02
-10.350  0.192E+02
-10.340  0.193E+02
-10.330  0.195E+02
-10.320  0.196E+02
-10.310  0.198E+02
-10.300  0.200E+02
-10.290  0.202E+02
-10.280  0.204E+02
-10.270  0.206E+02
-10.260  0.208E+02
-10.250  0.209E+02
-10.240  0.211E+02
-10.230  0.213E+02
-10.220  0.214E+02
-10.210  0.215E+02
-10.200  0.217E+02
-10.190  0.218E+02
-10.180  0.218E+02
-10.170  0.219E+02
-10.160  0.220E+02
-10.150  0.219E+02
-10.140  0.219E+02
-10.130  0.219E+02
-10.120  0.218E+02
-10.110  0.218E+02
-10.100  0.216E+02
-10.090  0.215E+02
-10.080  0.213E+02
-10.070  0.212E+02
-10.060  0.210E+02
-10.050  0.208E+02
-10.040  0.207E+02
-10.030  0.204E+02
-10.020  0.202E+02
-10.010  0.200E+02
-10.000  0.198E+02
 -9.990  0.196E+02
 -9.980  0.194E+02
 -9.970  0.192E+02
 -9.960  0.190E+02
 -9.950  0.189E+02
 -9.940  0.187E+02
 -9.930  0.186E+02
 -9.920  0.184E+02
 -9.910  0.183E+02
 -9.900  0.182E+02
 -9.890  0.181E+02
 -9.880  0.181E+02
 -9.870  0.180E+02
 -9.860  0.180E+02
 -9.850  0.180E+02
 -9.840  0.179E+02
 -9.830  0.180E+02
 -9.820  0.180E+02
 -9.810  0.180E+02
 -9.800  0.181E+02
 -9.790  0.181E+02
 -9.780  0.182E+02
 -9.770  0.182E+02
 -9.760  0.183E+02
 -9.750  0.184E+02
 -9.740  0.185E+02
 -9.730  0.186E+02
 -9.720  0.187E+02
 -9.710  0.188E+02
 -9.700  0.189E+02
 -9.690  0.190E+02
 -9.680  0.191E+02
 -9.670  0.193E+02
 -9.660  0.194E+02
 -9.650  0.195E+02
 -9.640  0.197E+02
 -9.630  0.198E+02
 -9.620  0.199E+02
 -9.610  0.201E+02
 -9.600  0.202E+02
 -9.590  0.204E+02
 -9.580  0.205E+02
 -9.570  0.207E+02
 -9.560  0.209E+02
 -9.550  0.210E+02
 -9.540  0.212E+02
 -9.530  0.214E+02
 -9.520  0.216E+02
 -9.510  0.218E+02
 -9.500  0.220E+02
 -9.490  0.222E+02
 -9.480  0.224E+02
 -9.470  0.226E+02
 -9.460  0.228E+02
 -9.450  0.231E+02
 -9.440  0.233E+02
 -9.430  0.235E+02
 -9.420  0.238E+02
 -9.410  0.240E+02
 -9.400  0.243E+02
 -9.390  0.245E+02
 -9.380  0.248E+02
 -9.370  0.250E+02
 -9.360  0.253E+02
 -9.350  0.255E+02
 -9.340  0.258E+02
 -9.330  0.260E+02
 -9.320  0.263E+02
 -9.310  0.265E+02
 -9.300  0.267E+02
 -9.290  0.269E+02
 -9.280  0.271E+02
 -9.270  0.273E+02
 -9.260  0.275E+02
 -9.250  0.276E+02
 -9.240  0.278E+02
 -9.230  0.280E+02
 -9.220  0.281E+02
 -9.210  0.282E+02
 -9.200  0.284E+02
 -9.190  0.285E+02
 -9.180  0.286E+02
 -9.170  0.287E+02
 -9.160  0.288E+02
 -9.150  0.289E+02
 -9.140  0.290E+02
 -9.130  0.291E+02
 -9.120  0.292E+02
 -9.110  0.293E+02
 -9.100  0.293E+02
 -9.090  0.294E+02
 -9.080  0.295E+02
 -9.070  0.296E+02
 -9.060  0.296E+02
 -9.050  0.297E+02
 -9.040  0.298E+02
 -9.030  0.298E+02
 -9.020  0.299E+02
 -9.010  0.299E+02
 -9.000  0.300E+02
 -8.990  0.300E+02
 -8.980  0.300E+02
 -8.970  0.300E+02
 -8.960  0.300E+02
 -8.950  0.300E+02
 -8.940  0.299E+02
 -8.930  0.299E+02
 -8.920  0.298E+02
 -8.910  0.297E+02
 -8.900  0.297E+02
 -8.890  0.296E+02
 -8.880  0.295E+02
 -8.870  0.294E+02
 -8.860  0.292E+02
 -8.850  0.290E+02
 -8.840  0.289E+02
 -8.830  0.287E+02
 -8.820  0.286E+02
 -8.810  0.284E+02
 -8.800  0.282E+02
 -8.790  0.279E+02
 -8.780  0.278E+02
 -8.770  0.276E+02
 -8.760  0.273E+02
 -8.750  0.271E+02
 -8.740  0.269E+02
 -8.730  0.266E+02
 -8.720  0.264E+02
 -8.710  0.262E+02
 -8.700  0.259E+02
 -8.690  0.256E+02
 -8.680  0.254E+02
 -8.670  0.251E+02
 -8.660  0.249E+02
 -8.650  0.246E+02
 -8.640  0.243E+02
 -8.630  0.240E+02
 -8.620  0.237E+02
 -8.610  0.234E+02
 -8.600  0.232E+02
 -8.590  0.229E+02
 -8.580  0.227E+02
 -8.570  0.224E+02
 -8.560  0.222E+02
 -8.550  0.220E+02
 -8.540  0.217E+02
 -8.530  0.215E+02
 -8.520  0.214E+02
 -8.510  0.212E+02
 -8.500  0.210E+02
 -8.490  0.209E+02
 -8.480  0.208E+02
 -8.470  0.206E+02
 -8.460  0.205E+02
 -8.450  0.205E+02
 -8.440  0.204E+02
 -8.430  0.203E+02
 -8.420  0.203E+02
 -8.410  0.202E+02
 -8.400  0.202E+02
 -8.390  0.202E+02
 -8.380  0.202E+02
 -8.370  0.201E+02
 -8.360  0.201E+02
 -8.350  0.201E+02
 -8.340  0.201E+02
 -8.330  0.201E+02
 -8.320  0.200E+02
 -8.310  0.200E+02
 -8.300  0.199E+02
 -8.290  0.198E+02
 -8.280  0.198E+02
 -8.270  0.196E+02
 -8.260  0.195E+02
 -8.250  0.194E+02
 -8.240  0.192E+02
 -8.230  0.191E+02
 -8.220  0.189E+02
 -8.210  0.187E+02
 -8.200  0.185E+02
 -8.190  0.182E+02
 -8.180  0.180E+02
 -8.170  0.177E+02
 -8.160  0.174E+02
 -8.150  0.172E+02
 -8.140  0.169E+02
 -8.130  0.166E+02
 -8.120  0.163E+02
 -8.110  0.160E+02
 -8.100  0.156E+02
 -8.090  0.153E+02
 -8.080  0.150E+02
 -8.070  0.147E+02
 -8.060  0.144E+02
 -8.050  0.141E+02
 -8.040  0.138E+02
 -8.030  0.135E+02
 -8.020  0.132E+02
 -8.010  0.130E+02
 -8.000  0.127E+02
 -7.990  0.124E+02
 -7.980  0.122E+02
 -7.970  0.120E+02
 -7.960  0.117E+02
 -7.950  0.115E+02
 -7.940  0.113E+02
 -7.930  0.111E+02
 -7.920  0.109E+02
 -7.910  0.108E+02
 -7.900  0.106E+02
 -7.890  0.104E+02
 -7.880  0.103E+02
 -7.870  0.101E+02
 -7.860  0.998E+01
 -7.850  0.984E+01
 -7.840  0.970E+01
 -7.830  0.957E+01
 -7.820  0.943E+01
 -7.810  0.930E+01
 -7.800  0.917E+01
 -7.790  0.904E+01
 -7.780  0.891E+01
 -7.770  0.877E+01
 -7.760  0.865E+01
 -7.750  0.851E+01
 -7.740  0.838E+01
 -7.730  0.826E+01
 -7.720  0.812E+01
 -7.710  0.799E+01
 -7.700  0.786E+01
 -7.690  0.773E+01
 -7.680  0.760E+01
 -7.670  0.748E+01
 -7.660  0.736E+01
 -7.650  0.723E+01
 -7.640  0.712E+01
 -7.630  0.700E+01
 -7.620  0.689E+01
 -7.610  0.678E+01
 -7.600  0.668E+01
 -7.590  0.656E+01
 -7.580  0.647E+01
 -7.570  0.637E+01
 -7.560  0.628E+01
 -7.550  0.619E+01
 -7.540  0.609E+01
 -7.530  0.601E+01
 -7.520  0.593E+01
 -7.510  0.584E+01
 -7.500  0.576E+01
 -7.490  0.569E+01
 -7.480  0.560E+01
 -7.470  0.553E+01
 -7.460  0.546E+01
 -7.450  0.537E+01
 -7.440  0.530E+01
 -7.430  0.522E+01
 -7.420  0.515E+01
 -7.410  0.508E+01
 -7.400  0.500E+01
 -7.390  0.493E+01
 -7.380  0.486E+01
 -7.370  0.479E+01
 -7.360  0.472E+01
 -7.350  0.466E+01
 -7.340  0.460E+01
 -7.330  0.454E+01
 -7.320  0.448E+01
 -7.310  0.443E+01
 -7.300  0.439E+01
 -7.290  0.435E+01
 -7.280  0.431E+01
 -7.270  0.428E+01
 -7.260  0.425E+01
 -7.250  0.423E+01
 -7.240  0.421E+01
 -7.230  0.419E+01
 -7.220  0.418E+01
 -7.210  0.417E+01
 -7.200  0.417E+01
 -7.190  0.416E+01
 -7.180  0.416E+01
 -7.170  0.416E+01
 -7.160  0.416E+01
 -7.150  0.416E+01
 -7.140  0.416E+01
 -7.130  0.416E+01
 -7.120  0.415E+01
 -7.110  0.415E+01
 -7.100  0.414E+01
 -7.090  0.413E+01
 -7.080  0.412E+01
 -7.070  0.411E+01
 -7.060  0.410E+01
 -7.050  0.408E+01
 -7.040  0.406E+01
 -7.030  0.404E+01
 -7.020  0.401E+01
 -7.010  0.399E+01
 -7.000  0.396E+01
 -6.990  0.393E+01
 -6.980  0.389E+01
 -6.970  0.386E+01
 -6.960  0.382E+01
 -6.950  0.378E+01
 -6.940  0.374E+01
 -6.930  0.369E+01
 -6.920  0.365E+01
 -6.910  0.360E+01
 -6.900  0.355E+01
 -6.890  0.350E+01
 -6.880  0.345E+01
 -6.870  0.339E+01
 -6.860  0.333E+01
 -6.850  0.327E+01
 -6.840  0.321E+01
 -6.830  0.314E+01
 -6.820  0.307E+01
 -6.810  0.300E+01
 -6.800  0.292E+01
 -6.790  0.284E+01
 -6.780  0.276E+01
 -6.770  0.267E+01
 -6.760  0.258E+01
 -6.750  0.249E+01
 -6.740  0.240E+01
 -6.730  0.230E+01
 -6.720  0.220E+01
 -6.710  0.210E+01
 -6.700  0.200E+01
 -6.690  0.189E+01
 -6.680  0.179E+01
 -6.670  0.169E+01
 -6.660  0.159E+01
 -6.650  0.149E+01
 -6.640  0.139E+01
 -6.630  0.129E+01
 -6.620  0.120E+01
 -6.610  0.111E+01
 -6.600  0.102E+01
 -6.590  0.934E+00
 -6.580  0.854E+00
 -6.570  0.777E+00
 -6.560  0.705E+00
 -6.550  0.637E+00
 -6.540  0.573E+00
 -6.530  0.514E+00
 -6.520  0.459E+00
 -6.510  0.408E+00
 -6.500  0.362E+00
 -6.490  0.319E+00
 -6.480  0.281E+00
 -6.470  0.246E+00
 -6.460  0.214E+00
 -6.450  0.186E+00
 -6.440  0.161E+00
 -6.430  0.138E+00
 -6.420  0.119E+00
 -6.410  0.101E+00
 -6.400  0.862E-01
 -6.390  0.729E-01
 -6.380  0.615E-01
 -6.370  0.516E-01
 -6.360  0.431E-01
 -6.350  0.359E-01
 -6.340  0.297E-01
 -6.330  0.245E-01
 -6.320  0.201E-01
 -6.310  0.164E-01
 -6.300  0.134E-01
 -6.290  0.108E-01
 -6.280  0.873E-02
 -6.270  0.701E-02
 -6.260  0.561E-02
 -6.250  0.446E-02
 -6.240  0.353E-02
 -6.230  0.279E-02
 -6.220  0.218E-02
 -6.210  0.171E-02
 -6.200  0.133E-02
 -6.190  0.103E-02
 -6.180  0.791E-03
 -6.170  0.607E-03
 -6.160  0.463E-03
 -6.150  0.352E-03
 -6.140  0.266E-03
 -6.130  0.200E-03
 -6.120  0.150E-03
 -6.110  0.112E-03
 -6.100  0.830E-04
 -6.090  0.613E-04
 -6.080  0.451E-04
 -6.070  0.330E-04
 -6.060  0.240E-04
 -6.050  0.174E-04
 -6.040  0.126E-04
 -6.030  0.901E-05
 -6.020  0.643E-05
 -6.010  0.457E-05
 -6.000  0.324E-05
 -5.990  0.228E-05
 -5.980  0.160E-05
 -5.970  0.111E-05
 -5.960  0.774E-06
 -5.950  0.535E-06
 -5.940  0.367E-06
 -5.930  0.251E-06
 -5.920  0.171E-06
 -5.910  0.116E-06
 -5.900  0.781E-07
 -5.890  0.524E-07
 -5.880  0.350E-07
 -5.870  0.233E-07
 -5.860  0.154E-07
 -5.850  0.101E-07
 -5.840  0.664E-08
 -5.830  0.432E-08
 -5.820  0.280E-08
 -5.810  0.181E-08
 -5.800  0.116E-08
 -5.790  0.738E-09
 -5.780  0.470E-09
 -5.770  0.297E-09
 -5.760  0.187E-09
 -5.750  0.117E-09
 -5.740  0.734E-10
 -5.730  0.456E-10
 -5.720  0.281E-10
 -5.710  0.173E-10
 -5.700  0.786E-11
 -5.690  0.481E-11
 -5.680  0.293E-11
 -5.670  0.178E-11
 -5.660  0.000E+00
 -5.650  0.000E+00
 -5.640  0.000E+00
 -5.630  0.000E+00
 -5.620  0.000E+00
 -5.610  0.000E+00
 -5.600  0.000E+00
 -5.590  0.000E+00
 -5.580  0.000E+00
 -5.570  0.000E+00
 -5.560  0.000E+00
 -5.550  0.000E+00
 -5.540  0.000E+00
 -5.530  0.000E+00
 -5.520  0.000E+00
 -5.510  0.000E+00
 -5.500  0.000E+00
 -5.490  0.000E+00
 -5.480  0.000E+00
 -5.470  0.000E+00
 -5.460  0.000E+00
 -5.450  0.000E+00
 -5.440  0.000E+00
 -5.430  0.000E+00
 -5.420  0.000E+00
 -5.410  0.000E+00
 -5.400  0.000E+00
 -5.390  0.000E+00
 -5.380  0.000E+00
 -5.370  0.000E+00
 -5.360  0.000E+00
 -5.350  0.000E+00
 -5.340  0.000E+00
 -5.330  0.000E+00
 -5.320  0.000E+00
 -5.310  0.000E+00
 -5.300  0.000E+00
 -5.290  0.000E+00
 -5.280  0.000E+00
 -5.270  0.000E+00
 -5.260  0.000E+00
 -5.250  0.000E+00
 -5.240  0.000E+00
 -5.230  0.000E+00
 -5.220  0.000E+00
 -5.210  0.000E+00
 -5.200  0.000E+00
 -5.190  0.000E+00
 -5.180  0.000E+00
 -5.170  0.000E+00
 -5.160  0.000E+00
 -5.150  0.000E+00
 -5.140  0.000E+00
 -5.130  0.000E+00
 -5.120  0.000E+00
 -5.110  0.000E+00
 -5.100  0.000E+00
 -5.090  0.000E+00
 -5.080  0.000E+00
 -5.070  0.000E+00
 -5.060  0.000E+00
 -5.050  0.000E+00
 -5.040  0.000E+00
 -5.030  0.000E+00
 -5.020  0.000E+00
 -5.010  0.000E+00
 -5.000  0.000E+00
 -4.990  0.000E+00
 -4.980  0.000E+00
 -4.970  0.000E+00
 -4.960  0.000E+00
 -4.950  0.000E+00
 -4.940  0.000E+00
 -4.930  0.000E+00
 -4.920  0.000E+00
 -4.910  0.000E+00
 -4.900  0.000E+00
 -4.890  0.000E+00
 -4.880  0.000E+00
 -4.870  0.000E+00
 -4.860  0.000E+00
 -4.850  0.000E+00
 -4.840  0.000E+00
 -4.830  0.000E+00
 -4.820  0.000E+00
 -4.810  0.000E+00
 -4.800  0.000E+00
 -4.790  0.000E+00
 -4.780  0.000E+00
 -4.770  0.000E+00
 -4.760  0.000E+00
 -4.750  0.000E+00
 -4.740  0.000E+00
 -4.730  0.000E+00
 -4.720  0.000E+00
 -4.710  0.000E+00
 -4.700  0.000E+00
 -4.690  0.000E+00
 -4.680  0.000E+00
 -4.670  0.000E+00
 -4.660  0.000E+00
 -4.650  0.000E+00
 -4.640  0.000E+00
 -4.630  0.000E+00
 -4.620  0.000E+00
 -4.610  0.000E+00
 -4.600  0.000E+00
 -4.590  0.000E+00
 -4.580  0.000E+00
 -4.570  0.000E+00
 -4.560  0.000E+00
 -4.550  0.000E+00
 -4.540  0.000E+00
 -4.530  0.000E+00
 -4.520  0.000E+00
 -4.510  0.000E+00
 -4.500  0.000E+00
 -4.490  0.000E+00
 -4.480  0.000E+00
 -4.470  0.000E+00
 -4.460  0.000E+00
 -4.450  0.000E+00
 -4.440  0.000E+00
 -4.430  0.000E+00
 -4.420  0.000E+00
 -4.410  0.000E+00
 -4.400  0.000E+00
 -4.390  0.000E+00
 -4.380  0.000E+00
 -4.370  0.000E+00
 -4.360  0.000E+00
 -4.350  0.000E+00
 -4.340  0.000E+00
 -4.330  0.000E+00
 -4.320  0.000E+00
 -4.310  0.000E+00
 -4.300  0.000E+00
 -4.290  0.000E+00
 -4.280  0.000E+00
 -4.270  0.000E+00
 -4.260  0.000E+00
 -4.250  0.000E+00
 -4.240  0.000E+00
 -4.230  0.000E+00
 -4.220  0.000E+00
 -4.210  0.000E+00
 -4.200  0.000E+00
 -4.190  0.000E+00
 -4.180  0.000E+00
 -4.170  0.000E+00
 -4.160  0.000E+00
 -4.150  0.000E+00
 -4.140  0.000E+00
 -4.130  0.000E+00
 -4.120  0.000E+00
 -4.110  0.000E+00
 -4.100  0.000E+00
 -4.090  0.000E+00
 -4.080  0.000E+00
 -4.070  0.000E+00
 -4.060  0.000E+00
 -4.050  0.000E+00
 -4.040  0.000E+00
 -4.030  0.000E+00
 -4.020  0.000E+00
 -4.010  0.000E+00
 -4.000  0.000E+00
 -3.990  0.000E+00
 -3.980  0.000E+00
 -3.970  0.000E+00
 -3.960  0.000E+00
 -3.950  0.000E+00
 -3.940  0.000E+00
 -3.930  0.565E-12
 -3.920  0.934E-12
 -3.910  0.154E-11
 -3.900  0.252E-11
 -3.890  0.410E-11
 -3.880  0.665E-11
 -3.870  0.107E-10
 -3.860  0.172E-10
 -3.850  0.275E-10
 -3.840  0.469E-10
 -3.830  0.743E-10
 -3.820  0.117E-09
 -3.810  0.184E-09
 -3.800  0.288E-09
 -3.790  0.448E-09
 -3.780  0.694E-09
 -3.770  0.107E-08
 -3.760  0.164E-08
 -3.750  0.250E-08
 -3.740  0.380E-08
 -3.730  0.575E-08
 -3.720  0.864E-08
 -3.710  0.129E-07
 -3.700  0.193E-07
 -3.690  0.286E-07
 -3.680  0.422E-07
 -3.670  0.619E-07
 -3.660  0.906E-07
 -3.650  0.132E-06
 -3.640  0.191E-06
 -3.630  0.275E-06
 -3.620  0.394E-06
 -3.610  0.563E-06
 -3.600  0.800E-06
 -3.590  0.113E-05
 -3.580  0.159E-05
 -3.570  0.223E-05
 -3.560  0.311E-05
 -3.550  0.432E-05
 -3.540  0.597E-05
 -3.530  0.820E-05
 -3.520  0.112E-04
 -3.510  0.153E-04
 -3.500  0.208E-04
 -3.490  0.280E-04
 -3.480  0.377E-04
 -3.470  0.504E-04
 -3.460  0.671E-04
 -3.450  0.890E-04
 -3.440  0.117E-03
 -3.430  0.154E-03
 -3.420  0.202E-03
 -3.410  0.263E-03
 -3.400  0.341E-03
 -3.390  0.439E-03
 -3.380  0.564E-03
 -3.370  0.722E-03
 -3.360  0.919E-03
 -3.350  0.116E-02
 -3.340  0.147E-02
 -3.330  0.185E-02
 -3.320  0.231E-02
 -3.310  0.288E-02
 -3.300  0.357E-02
 -3.290  0.440E-02
 -3.280  0.541E-02
 -3.270  0.662E-02
 -3.260  0.805E-02
 -3.250  0.978E-02
 -3.240  0.118E-01
 -3.230  0.142E-01
 -3.220  0.170E-01
 -3.210  0.203E-01
 -3.200  0.241E-01
 -3.190  0.285E-01
 -3.180  0.335E-01
 -3.170  0.393E-01
 -3.160  0.458E-01
 -3.150  0.532E-01
 -3.140  0.616E-01
 -3.130  0.710E-01
 -3.120  0.815E-01
 -3.110  0.932E-01
 -3.100  0.106E+00
 -3.090  0.120E+00
 -3.080  0.136E+00
 -3.070  0.153E+00
 -3.060  0.171E+00
 -3.050  0.192E+00
 -3.040  0.213E+00
 -3.030  0.236E+00
 -3.020  0.260E+00
 -3.010  0.286E+00
 -3.000  0.314E+00
 -2.990  0.343E+00
 -2.980  0.373E+00
 -2.970  0.405E+00
 -2.960  0.438E+00
 -2.950  0.472E+00
 -2.940  0.507E+00
 -2.930  0.543E+00
 -2.920  0.580E+00
 -2.910  0.619E+00
 -2.900  0.657E+00
 -2.890  0.697E+00
 -2.880  0.737E+00
 -2.870  0.778E+00
 -2.860  0.818E+00
 -2.850  0.860E+00
 -2.840  0.902E+00
 -2.830  0.944E+00
 -2.820  0.985E+00
 -2.810  0.103E+01
 -2.800  0.107E+01
 -2.790  0.112E+01
 -2.780  0.116E+01
 -2.770  0.120E+01
 -2.760  0.125E+01
 -2.750  0.129E+01
 -2.740  0.134E+01
 -2.730  0.139E+01
 -2.720  0.144E+01
 -2.710  0.149E+01
 -2.700  0.154E+01
 -2.690  0.159E+01
 -2.680  0.164E+01
 -2.670  0.170E+01
 -2.660  0.176E+01
 -2.650  0.182E+01
 -2.640  0.188E+01
 -2.630  0.194E+01
 -2.620  0.201E+01
 -2.610  0.207E+01
 -2.600  0.214E+01
 -2.590  0.221E+01
 -2.580  0.228E+01
 -2.570  0.236E+01
 -2.560  0.243E+01
 -2.550  0.251E+01
 -2.540  0.259E+01
 -2.530  0.267E+01
 -2.520  0.275E+01
 -2.510  0.283E+01
 -2.500  0.291E+01
 -2.490  0.299E+01
 -2.480  0.307E+01
 -2.470  0.314E+01
 -2.460  0.322E+01
 -2.450  0.330E+01
 -2.440  0.337E+01
 -2.430  0.344E+01
 -2.420  0.352E+01
 -2.410  0.358E+01
 -2.400  0.365E+01
 -2.390  0.372E+01
 -2.380  0.378E+01
 -2.370  0.384E+01
 -2.360  0.390E+01
 -2.350  0.396E+01
 -2.340  0.402E+01
 -2.330  0.407E+01
 -2.320  0.412E+01
 -2.310  0.418E+01
 -2.300  0.423E+01
 -2.290  0.427E+01
 -2.280  0.432E+01
 -2.270  0.436E+01
 -2.260  0.441E+01
 -2.250  0.445E+01
 -2.240  0.449E+01
 -2.230  0.453E+01
 -2.220  0.456E+01
 -2.210  0.459E+01
 -2.200  0.462E+01
 -2.190  0.465E+01
 -2.180  0.467E+01
 -2.170  0.469E+01
 -2.160  0.471E+01
 -2.150  0.472E+01
 -2.140  0.473E+01
 -2.130  0.474E+01
 -2.120  0.474E+01
 -2.110  0.474E+01
 -2.100  0.473E+01
 -2.090  0.472E+01
 -2.080  0.471E+01
 -2.070  0.469E+01
 -2.060  0.468E+01
 -2.050  0.466E+01
 -2.040  0.464E+01
 -2.030  0.462E+01
 -2.020  0.460E+01
 -2.010  0.458E+01
 -2.000  0.457E+01
 -1.990  0.456E+01
 -1.980  0.455E+01
 -1.970  0.455E+01
 -1.960  0.455E+01
 -1.950  0.456E+01
 -1.940  0.457E+01
 -1.930  0.460E+01
 -1.920  0.462E+01
 -1.910  0.466E+01
 -1.900  0.470E+01
 -1.890  0.476E+01
 -1.880  0.482E+01
 -1.870  0.488E+01
 -1.860  0.495E+01
 -1.850  0.503E+01
 -1.840  0.510E+01
 -1.830  0.519E+01
 -1.820  0.528E+01
 -1.810  0.537E+01
 -1.800  0.545E+01
 -1.790  0.554E+01
 -1.780  0.562E+01
 -1.770  0.571E+01
 -1.760  0.579E+01
 -1.750  0.586E+01
 -1.740  0.593E+01
 -1.730  0.598E+01
 -1.720  0.604E+01
 -1.710  0.608E+01
 -1.700  0.612E+01
 -1.690  0.614E+01
 -1.680  0.615E+01
 -1.670  0.616E+01
 -1.660  0.615E+01
 -1.650  0.614E+01
 -1.640  0.613E+01
 -1.630  0.611E+01
 -1.620  0.608E+01
 -1.610  0.603E+01
 -1.600  0.601E+01
 -1.590  0.596E+01
 -1.580  0.591E+01
 -1.570  0.588E+01
 -1.560  0.583E+01
 -1.550  0.579E+01
 -1.540  0.575E+01
 -1.530  0.571E+01
 -1.520  0.568E+01
 -1.510  0.565E+01
 -1.500  0.563E+01
 -1.490  0.562E+01
 -1.480  0.561E+01
 -1.470  0.560E+01
 -1.460  0.560E+01
 -1.450  0.561E+01
 -1.440  0.562E+01
 -1.430  0.563E+01
 -1.420  0.565E+01
 -1.410  0.567E+01
 -1.400  0.569E+01
 -1.390  0.571E+01
 -1.380  0.573E+01
 -1.370  0.574E+01
 -1.360  0.575E+01
 -1.350  0.576E+01
 -1.340  0.576E+01
 -1.330  0.576E+01
 -1.320  0.575E+01
 -1.310  0.573E+01
 -1.300  0.571E+01
 -1.290  0.568E+01
 -1.280  0.564E+01
 -1.270  0.560E+01
 -1.260  0.555E+01
 -1.250  0.549E+01
 -1.240  0.543E+01
 -1.230  0.537E+01
 -1.220  0.530E+01
 -1.210  0.524E+01
 -1.200  0.517E+01
 -1.190  0.511E+01
 -1.180  0.504E+01
 -1.170  0.498E+01
 -1.160  0.493E+01
 -1.150  0.488E+01
 -1.140  0.484E+01
 -1.130  0.480E+01
 -1.120  0.477E+01
 -1.110  0.475E+01
 -1.100  0.474E+01
 -1.090  0.474E+01
 -1.080  0.475E+01
 -1.070  0.477E+01
 -1.060  0.479E+01
 -1.050  0.483E+01
 -1.040  0.488E+01
 -1.030  0.494E+01
 -1.020  0.500E+01
 -1.010  0.507E+01
 -1.000  0.515E+01
 -0.990  0.523E+01
 -0.980  0.533E+01
 -0.970  0.542E+01
 -0.960  0.552E+01
 -0.950  0.563E+01
 -0.940  0.574E+01
 -0.930  0.585E+01
 -0.920  0.597E+01
 -0.910  0.609E+01
 -0.900  0.621E+01
 -0.890  0.632E+01
 -0.880  0.644E+01
 -0.870  0.655E+01
 -0.860  0.667E+01
 -0.850  0.679E+01
 -0.840  0.690E+01
 -0.830  0.701E+01
 -0.820  0.712E+01
 -0.810  0.723E+01
 -0.800  0.734E+01
 -0.790  0.744E+01
 -0.780  0.754E+01
 -0.770  0.765E+01
 -0.760  0.775E+01
 -0.750  0.785E+01
 -0.740  0.795E+01
 -0.730  0.806E+01
 -0.720  0.817E+01
 -0.710  0.827E+01
 -0.700  0.838E+01
 -0.690  0.850E+01
 -0.680  0.860E+01
 -0.670  0.872E+01
 -0.660  0.884E+01
 -0.650  0.896E+01
 -0.640  0.909E+01
 -0.630  0.922E+01
 -0.620  0.935E+01
 -0.610  0.948E+01
 -0.600  0.963E+01
 -0.590  0.978E+01
 -0.580  0.991E+01
 -0.570  0.101E+02
 -0.560  0.102E+02
 -0.550  0.103E+02
 -0.540  0.105E+02
 -0.530  0.106E+02
 -0.520  0.108E+02
 -0.510  0.109E+02
 -0.500  0.111E+02
 -0.490  0.112E+02
 -0.480  0.114E+02
 -0.470  0.115E+02
 -0.460  0.117E+02
 -0.450  0.118E+02
 -0.440  0.120E+02
 -0.430  0.121E+02
 -0.420  0.123E+02
 -0.410  0.124E+02
 -0.400  0.126E+02
 -0.390  0.127E+02
 -0.380  0.129E+02
 -0.370  0.131E+02
 -0.360  0.132E+02
 -0.350  0.134E+02
 -0.340  0.135E+02
 -0.330  0.137E+02
 -0.320  0.139E+02
 -0.310  0.140E+02
 -0.300  0.142E+02
 -0.290  0.144E+02
 -0.280  0.145E+02
 -0.270  0.147E+02
 -0.260  0.149E+02
 -0.250  0.150E+02
 -0.240  0.152E+02
 -0.230  0.153E+02
 -0.220  0.155E+02
 -0.210  0.156E+02
 -0.200  0.158E+02
 -0.190  0.159E+02
 -0.180  0.160E+02
 -0.170  0.161E+02
 -0.160  0.163E+02
 -0.150  0.164E+02
 -0.140  0.165E+02
 -0.130  0.165E+02
 -0.120  0.166E+02
 -0.110  0.167E+02
 -0.100  0.168E+02
 -0.090  0.168E+02
 -0.080  0.168E+02
 -0.070  0.169E+02
 -0.060  0.169E+02
 -0.050  0.169E+02
 -0.040  0.169E+02
 -0.030  0.169E+02
 -0.020  0.168E+02
 -0.010  0.168E+02
  0.000  0.167E+02
  0.010  0.167E+02
  0.020  0.166E+02
  0.030  0.165E+02
  0.040  0.164E+02
  0.050  0.163E+02
  0.060  0.162E+02
  0.070  0.161E+02
  0.080  0.160E+02
  0.090  0.158E+02
  0.100  0.157E+02
  0.110  0.156E+02
  0.120  0.154E+02
  0.130  0.153E+02
  0.140  0.151E+02
  0.150  0.150E+02
  0.160  0.148E+02
  0.170  0.146E+02
  0.180  0.145E+02
  0.190  0.143E+02
  0.200  0.141E+02
  0.210  0.139E+02
  0.220  0.138E+02
  0.230  0.136E+02
  0.240  0.134E+02
  0.250  0.132E+02
  0.260  0.130E+02
  0.270  0.129E+02
  0.280  0.127E+02
  0.290  0.125E+02
  0.300  0.123E+02
  0.310  0.121E+02
  0.320  0.119E+02
  0.330  0.117E+02
  0.340  0.115E+02
  0.350  0.113E+02
  0.360  0.111E+02
  0.370  0.109E+02
  0.380  0.107E+02
  0.390  0.105E+02
  0.400  0.103E+02
  0.410  0.101E+02
  0.420  0.993E+01
  0.430  0.975E+01
  0.440  0.955E+01
  0.450  0.937E+01
  0.460  0.921E+01
  0.470  0.904E+01
  0.480  0.888E+01
  0.490  0.872E+01
  0.500  0.858E+01
  0.510  0.843E+01
  0.520  0.831E+01
  0.530  0.818E+01
  0.540  0.807E+01
  0.550  0.796E+01
  0.560  0.787E+01
  0.570  0.779E+01
  0.580  0.772E+01
  0.590  0.765E+01
  0.600  0.761E+01
  0.610  0.757E+01
  0.620  0.755E+01
  0.630  0.753E+01
  0.640  0.753E+01
  0.650  0.755E+01
  0.660  0.757E+01
  0.670  0.761E+01
  0.680  0.766E+01
  0.690  0.772E+01
  0.700  0.779E+01
  0.710  0.787E+01
  0.720  0.796E+01
  0.730  0.806E+01
  0.740  0.816E+01
  0.750  0.828E+01
  0.760  0.839E+01
  0.770  0.852E+01
  0.780  0.865E+01
  0.790  0.878E+01
  0.800  0.891E+01
  0.810  0.905E+01
  0.820  0.919E+01
  0.830  0.933E+01
  0.840  0.946E+01
  0.850  0.960E+01
  0.860  0.974E+01
  0.870  0.988E+01
  0.880  0.100E+02
  0.890  0.101E+02
  0.900  0.103E+02
  0.910  0.104E+02
  0.920  0.106E+02
  0.930  0.107E+02
  0.940  0.108E+02
  0.950  0.110E+02
  0.960  0.111E+02
  0.970  0.112E+02
  0.980  0.114E+02
  0.990  0.115E+02
  1.000  0.116E+02
  1.010  0.118E+02
  1.020  0.119E+02
  1.030  0.120E+02
  1.040  0.122E+02
  1.050  0.123E+02
  1.060  0.125E+02
  1.070  0.126E+02
  1.080  0.127E+02
  1.090  0.128E+02
  1.100  0.130E+02
  1.110  0.131E+02
  1.120  0.132E+02
  1.130  0.133E+02
  1.140  0.134E+02
  1.150  0.135E+02
  1.160  0.136E+02
  1.170  0.137E+02
  1.180  0.138E+02
  1.190  0.139E+02
  1.200  0.139E+02
  1.210  0.140E+02
  1.220  0.140E+02
  1.230  0.141E+02
  1.240  0.141E+02
  1.250  0.141E+02
  1.260  0.141E+02
  1.270  0.141E+02
  1.280  0.140E+02
  1.290  0.140E+02
  1.300  0.139E+02
  1.310  0.139E+02
  1.320  0.138E+02
  1.330  0.136E+02
  1.340  0.135E+02
  1.350  0.134E+02
  1.360  0.132E+02
  1.370  0.131E+02
  1.380  0.129E+02
  1.390  0.127E+02
  1.400  0.126E+02
  1.410  0.124E+02
  1.420  0.122E+02
  1.430  0.120E+02
  1.440  0.118E+02
  1.450  0.116E+02
  1.460  0.114E+02
  1.470  0.112E+02
  1.480  0.110E+02
  1.490  0.108E+02
  1.500  0.107E+02
  1.510  0.105E+02
  1.520  0.103E+02
  1.530  0.102E+02
  1.540  0.101E+02
  1.550  0.995E+01
  1.560  0.986E+01
  1.570  0.976E+01
  1.580  0.967E+01
  1.590  0.959E+01
  1.600  0.952E+01
  1.610  0.947E+01
  1.620  0.942E+01
  1.630  0.937E+01
  1.640  0.933E+01
  1.650  0.929E+01
  1.660  0.926E+01
  1.670  0.923E+01
  1.680  0.920E+01
  1.690  0.917E+01
  1.700  0.914E+01
  1.710  0.911E+01
  1.720  0.908E+01
  1.730  0.905E+01
  1.740  0.902E+01
  1.750  0.898E+01
  1.760  0.894E+01
  1.770  0.891E+01
  1.780  0.888E+01
  1.790  0.884E+01
  1.800  0.882E+01
  1.810  0.880E+01
  1.820  0.876E+01
  1.830  0.874E+01
  1.840  0.872E+01
  1.850  0.871E+01
  1.860  0.870E+01
  1.870  0.870E+01
  1.880  0.869E+01
  1.890  0.871E+01
  1.900  0.872E+01
  1.910  0.875E+01
  1.920  0.878E+01
  1.930  0.882E+01
  1.940  0.887E+01
  1.950  0.893E+01
  1.960  0.899E+01
  1.970  0.905E+01
  1.980  0.914E+01
  1.990  0.921E+01
  2.000  0.930E+01
  2.010  0.939E+01
  2.020  0.950E+01
  2.030  0.961E+01
  2.040  0.971E+01
  2.050  0.982E+01
  2.060  0.994E+01
  2.070  0.100E+02
  2.080  0.102E+02
  2.090  0.103E+02
  2.100  0.104E+02
  2.110  0.105E+02
  2.120  0.107E+02
  2.130  0.108E+02
  2.140  0.109E+02
  2.150  0.110E+02
  2.160  0.111E+02
  2.170  0.112E+02
  2.180  0.114E+02
  2.190  0.115E+02
  2.200  0.116E+02
  2.210  0.117E+02
  2.220  0.118E+02
  2.230  0.119E+02
  2.240  0.120E+02
  2.250  0.121E+02
  2.260  0.122E+02
  2.270  0.123E+02
  2.280  0.124E+02
  2.290  0.125E+02
  2.300  0.126E+02
  2.310  0.127E+02
  2.320  0.128E+02
  2.330  0.129E+02
  2.340  0.130E+02
  2.350  0.131E+02
  2.360  0.132E+02
  2.370  0.132E+02
  2.380  0.133E+02
  2.390  0.134E+02
  2.400  0.134E+02
  2.410  0.135E+02
  2.420  0.135E+02
  2.430  0.135E+02
  2.440  0.135E+02
  2.450  0.136E+02
  2.460  0.136E+02
  2.470  0.136E+02
  2.480  0.136E+02
  2.490  0.136E+02
  2.500  0.135E+02
  2.510  0.135E+02
  2.520  0.135E+02
  2.530  0.135E+02
  2.540  0.135E+02
  2.550  0.134E+02
  2.560  0.134E+02
  2.570  0.134E+02
  2.580  0.134E+02
  2.590  0.134E+02
  2.600  0.134E+02
  2.610  0.134E+02
  2.620  0.134E+02
  2.630  0.134E+02
  2.640  0.134E+02
  2.650  0.134E+02
  2.660  0.135E+02
  2.670  0.135E+02
  2.680  0.135E+02
  2.690  0.136E+02
  2.700  0.136E+02
  2.710  0.136E+02
  2.720  0.136E+02
  2.730  0.137E+02
  2.740  0.137E+02
  2.750  0.137E+02
  2.760  0.137E+02
  2.770  0.137E+02
  2.780  0.137E+02
  2.790  0.137E+02
  2.800  0.136E+02
  2.810  0.136E+02
  2.820  0.135E+02
  2.830  0.135E+02
  2.840  0.134E+02
  2.850  0.133E+02
  2.860  0.132E+02
  2.870  0.131E+02
  2.880  0.130E+02
  2.890  0.129E+02
  2.900  0.128E+02
  2.910  0.127E+02
  2.920  0.125E+02
  2.930  0.124E+02
  2.940  0.123E+02
  2.950  0.122E+02
  2.960  0.121E+02
  2.970  0.120E+02
  2.980  0.119E+02
  2.990  0.118E+02
  3.000  0.117E+02
  3.010  0.116E+02
  3.020  0.116E+02
  3.030  0.115E+02
  3.040  0.114E+02
  3.050  0.114E+02
  3.060  0.114E+02
  3.070  0.113E+02
  3.080  0.113E+02
  3.090  0.113E+02
  3.100  0.113E+02
  3.110  0.113E+02
  3.120  0.113E+02
  3.130  0.114E+02
  3.140  0.114E+02
  3.150  0.114E+02
  3.160  0.115E+02
  3.170  0.115E+02
  3.180  0.116E+02
  3.190  0.116E+02
  3.200  0.117E+02
  3.210  0.118E+02
  3.220  0.118E+02
  3.230  0.119E+02
  3.240  0.120E+02
  3.250  0.120E+02
  3.260  0.121E+02
  3.270  0.122E+02
  3.280  0.122E+02
  3.290  0.123E+02
  3.300  0.124E+02
  3.310  0.124E+02
  3.320  0.124E+02
  3.330  0.125E+02
  3.340  0.125E+02
  3.350  0.125E+02
  3.360  0.126E+02
  3.370  0.126E+02
  3.380  0.126E+02
  3.390  0.126E+02
  3.400  0.126E+02
  3.410  0.125E+02
  3.420  0.125E+02
  3.430  0.125E+02
  3.440  0.125E+02
  3.450  0.124E+02
  3.460  0.124E+02
  3.470  0.123E+02
  3.480  0.122E+02
  3.490  0.122E+02
  3.500  0.121E+02
  3.510  0.120E+02
  3.520  0.119E+02
  3.530  0.118E+02
  3.540  0.117E+02
  3.550  0.116E+02
  3.560  0.115E+02
  3.570  0.114E+02
  3.580  0.113E+02
  3.590  0.112E+02
  3.600  0.110E+02
  3.610  0.109E+02
  3.620  0.108E+02
  3.630  0.106E+02
  3.640  0.105E+02
  3.650  0.104E+02
  3.660  0.103E+02
  3.670  0.101E+02
  3.680  0.100E+02
  3.690  0.990E+01
  3.700  0.979E+01
  3.710  0.969E+01
  3.720  0.961E+01
  3.730  0.952E+01
  3.740  0.945E+01
  3.750  0.939E+01
  3.760  0.934E+01
  3.770  0.929E+01
  3.780  0.926E+01
  3.790  0.924E+01
  3.800  0.924E+01
  3.810  0.923E+01
  3.820  0.924E+01
  3.830  0.926E+01
  3.840  0.928E+01
  3.850  0.932E+01
  3.860  0.936E+01
  3.870  0.940E+01
  3.880  0.945E+01
  3.890  0.950E+01
  3.900  0.956E+01
  3.910  0.962E+01
  3.920  0.968E+01
  3.930  0.973E+01
  3.940  0.980E+01
  3.950  0.986E+01
  3.960  0.992E+01
  3.970  0.998E+01
  3.980  0.100E+02
  3.990  0.101E+02
  4.000  0.102E+02
  4.010  0.102E+02
  4.020  0.103E+02
  4.030  0.103E+02
  4.040  0.104E+02
  4.050  0.105E+02
  4.060  0.105E+02
  4.070  0.106E+02
  4.080  0.106E+02
  4.090  0.107E+02
  4.100  0.108E+02
  4.110  0.108E+02
  4.120  0.109E+02
  4.130  0.110E+02
  4.140  0.110E+02
  4.150  0.111E+02
  4.160  0.112E+02
  4.170  0.112E+02
  4.180  0.113E+02
  4.190  0.113E+02
  4.200  0.114E+02
  4.210  0.115E+02
  4.220  0.115E+02
  4.230  0.115E+02
  4.240  0.116E+02
  4.250  0.116E+02
  4.260  0.116E+02
  4.270  0.116E+02
  4.280  0.117E+02
  4.290  0.117E+02
  4.300  0.117E+02
  4.310  0.116E+02
  4.320  0.116E+02
  4.330  0.116E+02
  4.340  0.116E+02
  4.350  0.116E+02
  4.360  0.115E+02
  4.370  0.115E+02
  4.380  0.114E+02
  4.390  0.114E+02
  4.400  0.113E+02
  4.410  0.113E+02
  4.420  0.113E+02
  4.430  0.112E+02
  4.440  0.112E+02
  4.450  0.111E+02
  4.460  0.111E+02
  4.470  0.111E+02
  4.480  0.111E+02
  4.490  0.110E+02
  4.500  0.110E+02
  4.510  0.110E+02
  4.520  0.110E+02
  4.530  0.110E+02
  4.540  0.110E+02
  4.550  0.110E+02
  4.560  0.110E+02
  4.570  0.110E+02
  4.580  0.110E+02
  4.590  0.111E+02
  4.600  0.111E+02
  4.610  0.111E+02
  4.620  0.112E+02
  4.630  0.112E+02
  4.640  0.112E+02
  4.650  0.113E+02
  4.660  0.113E+02
  4.670  0.114E+02
  4.680  0.114E+02
  4.690  0.115E+02
  4.700  0.115E+02
  4.710  0.116E+02
  4.720  0.116E+02
  4.730  0.117E+02
  4.740  0.117E+02
  4.750  0.117E+02
  4.760  0.118E+02
  4.770  0.118E+02
  4.780  0.118E+02
  4.790  0.118E+02
  4.800  0.118E+02
  4.810  0.118E+02
  4.820  0.118E+02
  4.830  0.118E+02
  4.840  0.117E+02
  4.850  0.117E+02
  4.860  0.117E+02
  4.870  0.116E+02
  4.880  0.116E+02
  4.890  0.115E+02
  4.900  0.114E+02
  4.910  0.114E+02
  4.920  0.113E+02
  4.930  0.112E+02
  4.940  0.112E+02
  4.950  0.111E+02
  4.960  0.110E+02
  4.970  0.110E+02
  4.980  0.109E+02
  4.990  0.108E+02
  5.000  0.108E+02
  5.010  0.107E+02
  5.020  0.107E+02
  5.030  0.106E+02
  5.040  0.106E+02
  5.050  0.106E+02
  5.060  0.105E+02
  5.070  0.105E+02
  5.080  0.105E+02
  5.090  0.105E+02
  5.100  0.105E+02
  5.110  0.105E+02
  5.120  0.105E+02
  5.130  0.104E+02
  5.140  0.104E+02
  5.150  0.104E+02
  5.160  0.104E+02
  5.170  0.104E+02
  5.180  0.104E+02
  5.190  0.103E+02
  5.200  0.103E+02
  5.210  0.103E+02
  5.220  0.102E+02
  5.230  0.102E+02
  5.240  0.101E+02
  5.250  0.100E+02
  5.260  0.997E+01
  5.270  0.989E+01
  5.280  0.980E+01
  5.290  0.972E+01
  5.300  0.963E+01
  5.310  0.952E+01
  5.320  0.941E+01
  5.330  0.931E+01
  5.340  0.919E+01
  5.350  0.908E+01
  5.360  0.896E+01
  5.370  0.884E+01
  5.380  0.872E+01
  5.390  0.860E+01
  5.400  0.849E+01
  5.410  0.838E+01
  5.420  0.826E+01
  5.430  0.815E+01
  5.440  0.805E+01
  5.450  0.794E+01
  5.460  0.785E+01
  5.470  0.776E+01
  5.480  0.767E+01
  5.490  0.758E+01
  5.500  0.751E+01
  5.510  0.743E+01
  5.520  0.736E+01
  5.530  0.731E+01
  5.540  0.725E+01
  5.550  0.720E+01
  5.560  0.716E+01
  5.570  0.712E+01
  5.580  0.708E+01
  5.590  0.706E+01
  5.600  0.704E+01
  5.610  0.703E+01
  5.620  0.702E+01
  5.630  0.702E+01
  5.640  0.702E+01
  5.650  0.704E+01
  5.660  0.706E+01
  5.670  0.709E+01
  5.680  0.713E+01
  5.690  0.717E+01
  5.700  0.722E+01
  5.710  0.728E+01
  5.720  0.736E+01
  5.730  0.743E+01
  5.740  0.752E+01
  5.750  0.760E+01
  5.760  0.771E+01
  5.770  0.780E+01
  5.780  0.791E+01
  5.790  0.802E+01
  5.800  0.814E+01
  5.810  0.826E+01
  5.820  0.838E+01
  5.830  0.850E+01
  5.840  0.863E+01
  5.850  0.877E+01
  5.860  0.890E+01
  5.870  0.902E+01
  5.880  0.916E+01
  5.890  0.930E+01
  5.900  0.943E+01
  5.910  0.956E+01
  5.920  0.969E+01
  5.930  0.982E+01
  5.940  0.995E+01
  5.950  0.101E+02
  5.960  0.102E+02
  5.970  0.103E+02
  5.980  0.104E+02
  5.990  0.106E+02
  6.000  0.107E+02
  6.010  0.108E+02
  6.020  0.109E+02
  6.030  0.110E+02
  6.040  0.111E+02
  6.050  0.111E+02
  6.060  0.112E+02
  6.070  0.113E+02
  6.080  0.113E+02
  6.090  0.114E+02
  6.100  0.114E+02
  6.110  0.115E+02
  6.120  0.115E+02
  6.130  0.115E+02
  6.140  0.115E+02
  6.150  0.115E+02
  6.160  0.115E+02
  6.170  0.115E+02
  6.180  0.114E+02
  6.190  0.114E+02
  6.200  0.113E+02
  6.210  0.113E+02
  6.220  0.112E+02
  6.230  0.112E+02
  6.240  0.111E+02
  6.250  0.110E+02
  6.260  0.109E+02
  6.270  0.108E+02
  6.280  0.107E+02
  6.290  0.107E+02
  6.300  0.106E+02
  6.310  0.105E+02
  6.320  0.104E+02
  6.330  0.103E+02
  6.340  0.102E+02
  6.350  0.101E+02
  6.360  0.101E+02
  6.370  0.999E+01
  6.380  0.992E+01
  6.390  0.985E+01
  6.400  0.980E+01
  6.410  0.975E+01
  6.420  0.970E+01
  6.430  0.965E+01
  6.440  0.963E+01
  6.450  0.959E+01
  6.460  0.957E+01
  6.470  0.955E+01
  6.480  0.955E+01
  6.490  0.955E+01
  6.500  0.955E+01
  6.510  0.956E+01
  6.520  0.957E+01
  6.530  0.960E+01
  6.540  0.963E+01
  6.550  0.967E+01
  6.560  0.971E+01
  6.570  0.978E+01
  6.580  0.984E+01
  6.590  0.991E+01
  6.600  0.999E+01
  6.610  0.101E+02
  6.620  0.102E+02
  6.630  0.103E+02
  6.640  0.104E+02
  6.650  0.105E+02
  6.660  0.107E+02
  6.670  0.108E+02
  6.680  0.110E+02
  6.690  0.111E+02
  6.700  0.113E+02
  6.710  0.115E+02
  6.720  0.117E+02
  6.730  0.119E+02
  6.740  0.121E+02
  6.750  0.122E+02
  6.760  0.124E+02
  6.770  0.126E+02
  6.780  0.129E+02
  6.790  0.131E+02
  6.800  0.132E+02
  6.810  0.134E+02
  6.820  0.136E+02
  6.830  0.138E+02
  6.840  0.140E+02
  6.850  0.142E+02
  6.860  0.143E+02
  6.870  0.145E+02
  6.880  0.147E+02
  6.890  0.148E+02
  6.900  0.149E+02
  6.910  0.151E+02
  6.920  0.152E+02
  6.930  0.153E+02
  6.940  0.154E+02
  6.950  0.156E+02
  6.960  0.157E+02
  6.970  0.158E+02
  6.980  0.159E+02
  6.990  0.160E+02
  7.000  0.161E+02
  7.010  0.161E+02
  7.020  0.162E+02
  7.030  0.163E+02
  7.040  0.164E+02
  7.050  0.165E+02
  7.060  0.166E+02
  7.070  0.166E+02
  7.080  0.167E+02
  7.090  0.168E+02
  7.100  0.169E+02
  7.110  0.169E+02
  7.120  0.170E+02
  7.130  0.170E+02
  7.140  0.170E+02
  7.150  0.170E+02
  7.160  0.171E+02
  7.170  0.171E+02
  7.180  0.170E+02
  7.190  0.170E+02
  7.200  0.170E+02
  7.210  0.169E+02
  7.220  0.168E+02
  7.230  0.167E+02
  7.240  0.166E+02
  7.250  0.165E+02
  7.260  0.164E+02
  7.270  0.162E+02
  7.280  0.160E+02
  7.290  0.158E+02
  7.300  0.156E+02
  7.310  0.154E+02
  7.320  0.152E+02
  7.330  0.150E+02
  7.340  0.147E+02
  7.350  0.145E+02
  7.360  0.143E+02
  7.370  0.140E+02
  7.380  0.138E+02
  7.390  0.135E+02
  7.400  0.132E+02
  7.410  0.130E+02
  7.420  0.128E+02
  7.430  0.125E+02
  7.440  0.123E+02
  7.450  0.121E+02
  7.460  0.119E+02
  7.470  0.117E+02
  7.480  0.115E+02
  7.490  0.114E+02
  7.500  0.112E+02
  7.510  0.111E+02
  7.520  0.110E+02
  7.530  0.109E+02
  7.540  0.108E+02
  7.550  0.107E+02
  7.560  0.107E+02
  7.570  0.106E+02
  7.580  0.106E+02
  7.590  0.106E+02
  7.600  0.105E+02
  7.610  0.105E+02
  7.620  0.105E+02
  7.630  0.105E+02
  7.640  0.105E+02
  7.650  0.104E+02
  7.660  0.104E+02
  7.670  0.104E+02
  7.680  0.103E+02
  7.690  0.103E+02
  7.700  0.102E+02
  7.710  0.101E+02
  7.720  0.100E+02
  7.730  0.991E+01
  7.740  0.980E+01
  7.750  0.966E+01
  7.760  0.952E+01
  7.770  0.935E+01
  7.780  0.919E+01
  7.790  0.901E+01
  7.800  0.883E+01
  7.810  0.864E+01
  7.820  0.845E+01
  7.830  0.826E+01
  7.840  0.806E+01
  7.850  0.788E+01
  7.860  0.769E+01
  7.870  0.752E+01
  7.880  0.735E+01
  7.890  0.720E+01
  7.900  0.705E+01
  7.910  0.691E+01
  7.920  0.680E+01
  7.930  0.668E+01
  7.940  0.658E+01
  7.950  0.651E+01
  7.960  0.644E+01
  7.970  0.638E+01
  7.980  0.634E+01
  7.990  0.631E+01
  8.000  0.628E+01
  8.010  0.627E+01
  8.020  0.626E+01
  8.030  0.626E+01
  8.040  0.627E+01
  8.050  0.626E+01
  8.060  0.626E+01
  8.070  0.627E+01
  8.080  0.626E+01
  8.090  0.626E+01
  8.100  0.625E+01
  8.110  0.623E+01
  8.120  0.620E+01
  8.130  0.616E+01
  8.140  0.611E+01
  8.150  0.606E+01
  8.160  0.599E+01
  8.170  0.591E+01
  8.180  0.581E+01
  8.190  0.571E+01
  8.200  0.560E+01
  8.210  0.548E+01
  8.220  0.535E+01
  8.230  0.521E+01
  8.240  0.506E+01
  8.250  0.491E+01
  8.260  0.474E+01
  8.270  0.458E+01
  8.280  0.441E+01
  8.290  0.424E+01
  8.300  0.406E+01
  8.310  0.389E+01
  8.320  0.371E+01
  8.330  0.354E+01
  8.340  0.336E+01
  8.350  0.319E+01
  8.360  0.303E+01
  8.370  0.287E+01
  8.380  0.271E+01
  8.390  0.256E+01
  8.400  0.242E+01
  8.410  0.228E+01
  8.420  0.215E+01
  8.430  0.203E+01
  8.440  0.192E+01
  8.450  0.181E+01
  8.460  0.171E+01
  8.470  0.161E+01
  8.480  0.153E+01
  8.490  0.145E+01
  8.500  0.138E+01
  8.510  0.131E+01
  8.520  0.125E+01
  8.530  0.120E+01
  8.540  0.115E+01
  8.550  0.111E+01
  8.560  0.108E+01
  8.570  0.104E+01
  8.580  0.101E+01
  8.590  0.991E+00
  8.600  0.970E+00
  8.610  0.952E+00
  8.620  0.937E+00
  8.630  0.924E+00
  8.640  0.913E+00
  8.650  0.904E+00
  8.660  0.896E+00
  8.670  0.889E+00
  8.680  0.884E+00
  8.690  0.879E+00
  8.700  0.874E+00
  8.710  0.870E+00
  8.720  0.865E+00
  8.730  0.862E+00
  8.740  0.857E+00
  8.750  0.853E+00
  8.760  0.849E+00
  8.770  0.844E+00
  8.780  0.839E+00
  8.790  0.835E+00
  8.800  0.829E+00
  8.810  0.824E+00
  8.820  0.819E+00
  8.830  0.813E+00
  8.840  0.807E+00
  8.850  0.803E+00
  8.860  0.797E+00
  8.870  0.792E+00
  8.880  0.787E+00
  8.890  0.782E+00
  8.900  0.778E+00
  8.910  0.774E+00
  8.920  0.772E+00
  8.930  0.769E+00
  8.940  0.767E+00
  8.950  0.765E+00
  8.960  0.764E+00
  8.970  0.764E+00
  8.980  0.764E+00
  8.990  0.765E+00
  9.000  0.766E+00
  9.010  0.767E+00
  9.020  0.770E+00
  9.030  0.773E+00
  9.040  0.775E+00
  9.050  0.778E+00
  9.060  0.781E+00
  9.070  0.784E+00
  9.080  0.787E+00
  9.090  0.790E+00
  9.100  0.793E+00
  9.110  0.795E+00
  9.120  0.798E+00
  9.130  0.800E+00
  9.140  0.801E+00
  9.150  0.803E+00
  9.160  0.803E+00
  9.170  0.804E+00
  9.180  0.805E+00
  9.190  0.805E+00
  9.200  0.804E+00
  9.210  0.804E+00
  9.220  0.804E+00
  9.230  0.803E+00
  9.240  0.803E+00
  9.250  0.803E+00
  9.260  0.804E+00
  9.270  0.805E+00
  9.280  0.807E+00
  9.290  0.809E+00
  9.300  0.813E+00
  9.310  0.816E+00
  9.320  0.822E+00
  9.330  0.828E+00
  9.340  0.835E+00
  9.350  0.844E+00
  9.360  0.853E+00
  9.370  0.864E+00
  9.380  0.875E+00
  9.390  0.887E+00
  9.400  0.899E+00
  9.410  0.913E+00
  9.420  0.928E+00
  9.430  0.942E+00
  9.440  0.957E+00
  9.450  0.972E+00
  9.460  0.986E+00
  9.470  0.100E+01
  9.480  0.102E+01
  9.490  0.103E+01
  9.500  0.104E+01
  9.510  0.105E+01
  9.520  0.106E+01
  9.530  0.107E+01
  9.540  0.108E+01
  9.550  0.108E+01
  9.560  0.109E+01
  9.570  0.109E+01
  9.580  0.110E+01
  9.590  0.110E+01
  9.600  0.110E+01
  9.610  0.109E+01
  9.620  0.109E+01
  9.630  0.109E+01
  9.640  0.108E+01
  9.650  0.108E+01
  9.660  0.107E+01
  9.670  0.106E+01
  9.680  0.105E+01
  9.690  0.105E+01
  9.700  0.104E+01
  9.710  0.103E+01
  9.720  0.102E+01
  9.730  0.101E+01
  9.740  0.101E+01
  9.750  0.998E+00
  9.760  0.991E+00
  9.770  0.985E+00
  9.780  0.980E+00
  9.790  0.975E+00
  9.800  0.971E+00
  9.810  0.968E+00
  9.820  0.966E+00
  9.830  0.964E+00
  9.840  0.964E+00
  9.850  0.964E+00
  9.860  0.964E+00
  9.870  0.966E+00
  9.880  0.968E+00
  9.890  0.970E+00
  9.900  0.974E+00
  9.910  0.978E+00
  9.920  0.980E+00
  9.930  0.985E+00
  9.940  0.989E+00
  9.950  0.993E+00
  9.960  0.996E+00
  9.970  0.999E+00
  9.980  0.100E+01
  9.990  0.100E+01
 10.000  0.101E+01
 10.010  0.101E+01
 10.020  0.101E+01
 10.030  0.101E+01
 10.040  0.100E+01
 10.050  0.100E+01
 10.060  0.997E+00
 10.070  0.992E+00
 10.080  0.987E+00
 10.090  0.980E+00
 10.100  0.972E+00
 10.110  0.964E+00
 10.120  0.955E+00
 10.130  0.945E+00
 10.140  0.936E+00
 10.150  0.926E+00
 10.160  0.915E+00
 10.170  0.905E+00
 10.180  0.895E+00
 10.190  0.885E+00
 10.200  0.876E+00
 10.210  0.867E+00
 10.220  0.858E+00
 10.230  0.850E+00
 10.240  0.843E+00
 10.250  0.836E+00
 10.260  0.831E+00
 10.270  0.826E+00
 10.280  0.822E+00
 10.290  0.818E+00
 10.300  0.816E+00
 10.310  0.814E+00
 10.320  0.813E+00
 10.330  0.813E+00
 10.340  0.812E+00
 10.350  0.812E+00
 10.360  0.813E+00
 10.370  0.813E+00
 10.380  0.814E+00
 10.390  0.814E+00
 10.400  0.815E+00
 10.410  0.816E+00
 10.420  0.815E+00
 10.430  0.816E+00
 10.440  0.816E+00
 10.450  0.815E+00
 10.460  0.815E+00
 10.470  0.814E+00
 10.480  0.813E+00
 10.490  0.811E+00
 10.500  0.809E+00
 10.510  0.809E+00
 10.520  0.807E+00
 10.530  0.805E+00
 10.540  0.803E+00
 10.550  0.801E+00
 10.560  0.800E+00
 10.570  0.799E+00
 10.580  0.798E+00
 10.590  0.797E+00
 10.600  0.798E+00
 10.610  0.797E+00
 10.620  0.798E+00
 10.630  0.799E+00
 10.640  0.800E+00
 10.650  0.803E+00
 10.660  0.805E+00
 10.670  0.808E+00
 10.680  0.812E+00
 10.690  0.816E+00
 10.700  0.820E+00
 10.710  0.826E+00
 10.720  0.830E+00
 10.730  0.837E+00
 10.740  0.842E+00
 10.750  0.849E+00
 10.760  0.856E+00
 10.770  0.862E+00
 10.780  0.869E+00
 10.790  0.876E+00
 10.800  0.883E+00
 10.810  0.891E+00
 10.820  0.898E+00
 10.830  0.907E+00
 10.840  0.914E+00
 10.850  0.921E+00
 10.860  0.929E+00
 10.870  0.937E+00
 10.880  0.945E+00
 10.890  0.951E+00
 10.900  0.959E+00
 10.910  0.967E+00
 10.920  0.972E+00
 10.930  0.981E+00
 10.940  0.989E+00
 10.950  0.995E+00
 10.960  0.100E+01
 10.970  0.101E+01
 10.980  0.102E+01
 10.990  0.102E+01
 11.000  0.103E+01
 11.010  0.104E+01
 11.020  0.104E+01
 11.030  0.105E+01
 11.040  0.106E+01
 11.050  0.107E+01
 11.060  0.107E+01
 11.070  0.108E+01
 11.080  0.109E+01
 11.090  0.110E+01
 11.100  0.110E+01
 11.110  0.111E+01
 11.120  0.112E+01
 11.130  0.113E+01
 11.140  0.114E+01
 11.150  0.114E+01
 11.160  0.115E+01
 11.170  0.116E+01
 11.180  0.117E+01
 11.190  0.118E+01
 11.200  0.119E+01
 11.210  0.119E+01
 11.220  0.120E+01
 11.230  0.121E+01
 11.240  0.122E+01
 11.250  0.122E+01
 11.260  0.123E+01
 11.270  0.124E+01
 11.280  0.124E+01
 11.290  0.125E+01
 11.300  0.125E+01
 11.310  0.126E+01
 11.320  0.126E+01
 11.330  0.126E+01
 11.340  0.126E+01
 11.350  0.126E+01
 11.360  0.126E+01
 11.370  0.126E+01
 11.380  0.126E+01
 11.390  0.126E+01
 11.400  0.125E+01
 11.410  0.124E+01
 11.420  0.124E+01
 11.430  0.123E+01
 11.440  0.122E+01
 11.450  0.121E+01
 11.460  0.120E+01
 11.470  0.119E+01
 11.480  0.118E+01
 11.490  0.117E+01
 11.500  0.116E+01
 11.510  0.115E+01
 11.520  0.114E+01
 11.530  0.113E+01
 11.540  0.113E+01
 11.550  0.112E+01
 11.560  0.111E+01
 11.570  0.111E+01
 11.580  0.110E+01
 11.590  0.110E+01
 11.600  0.110E+01
 11.610  0.110E+01
 11.620  0.110E+01
 11.630  0.110E+01
 11.640  0.111E+01
 11.650  0.111E+01
 11.660  0.112E+01
 11.670  0.113E+01
 11.680  0.114E+01
 11.690  0.115E+01
 11.700  0.116E+01
 11.710  0.117E+01
 11.720  0.118E+01
 11.730  0.119E+01
 11.740  0.121E+01
 11.750  0.122E+01
 11.760  0.123E+01
 11.770  0.124E+01
 11.780  0.125E+01
 11.790  0.125E+01
 11.800  0.126E+01
 11.810  0.127E+01
 11.820  0.128E+01
 11.830  0.128E+01
 11.840  0.129E+01
 11.850  0.129E+01
 11.860  0.129E+01
 11.870  0.129E+01
 11.880  0.129E+01
 11.890  0.129E+01
 11.900  0.128E+01
 11.910  0.128E+01
 11.920  0.127E+01
 11.930  0.127E+01
 11.940  0.126E+01
 11.950  0.126E+01
 11.960  0.125E+01
 11.970  0.125E+01
 11.980  0.124E+01
 11.990  0.123E+01
 12.000  0.123E+01
 12.010  0.122E+01
 12.020  0.122E+01
 12.030  0.121E+01
 12.040  0.121E+01
 12.050  0.121E+01
 12.060  0.121E+01
 12.070  0.120E+01
 12.080  0.120E+01
 12.090  0.120E+01
 12.100  0.120E+01
 12.110  0.120E+01
 12.120  0.120E+01
 12.130  0.121E+01
 12.140  0.121E+01
 12.150  0.121E+01
 12.160  0.121E+01
 12.170  0.121E+01
 12.180  0.122E+01
 12.190  0.122E+01
 12.200  0.122E+01
 12.210  0.122E+01
 12.220  0.122E+01
 12.230  0.123E+01
 12.240  0.123E+01
 12.250  0.123E+01
 12.260  0.123E+01
 12.270  0.123E+01
 12.280  0.123E+01
 12.290  0.123E+01
 12.300  0.123E+01
 12.310  0.123E+01
 12.320  0.124E+01
 12.330  0.124E+01
 12.340  0.124E+01
 12.350  0.124E+01
 12.360  0.124E+01
 12.370  0.125E+01
 12.380  0.125E+01
 12.390  0.126E+01
 12.400  0.127E+01
 12.410  0.128E+01
 12.420  0.129E+01
 12.430  0.130E+01
 12.440  0.131E+01
 12.450  0.133E+01
 12.460  0.135E+01
 12.470  0.137E+01
 12.480  0.138E+01
 12.490  0.141E+01
 12.500  0.143E+01
 12.510  0.145E+01
 12.520  0.148E+01
 12.530  0.151E+01
 12.540  0.154E+01
 12.550  0.157E+01
 12.560  0.160E+01
 12.570  0.163E+01
 12.580  0.166E+01
 12.590  0.169E+01
 12.600  0.172E+01
 12.610  0.175E+01
 12.620  0.178E+01
 12.630  0.181E+01
 12.640  0.185E+01
 12.650  0.188E+01
 12.660  0.191E+01
 12.670  0.194E+01
 12.680  0.196E+01
 12.690  0.199E+01
 12.700  0.202E+01
 12.710  0.205E+01
 12.720  0.207E+01
 12.730  0.210E+01
 12.740  0.212E+01
 12.750  0.215E+01
 12.760  0.217E+01
 12.770  0.219E+01
 12.780  0.221E+01
 12.790  0.224E+01
 12.800  0.226E+01
 12.810  0.227E+01
 12.820  0.229E+01
 12.830  0.231E+01
 12.840  0.233E+01
 12.850  0.234E+01
 12.860  0.236E+01
 12.870  0.237E+01
 12.880  0.239E+01
 12.890  0.240E+01
 12.900  0.241E+01
 12.910  0.242E+01
 12.920  0.243E+01
 12.930  0.244E+01
 12.940  0.245E+01
 12.950  0.246E+01
 12.960  0.246E+01
 12.970  0.247E+01
 12.980  0.247E+01
 12.990  0.248E+01
 13.000  0.248E+01
 13.010  0.249E+01
 13.020  0.249E+01
 13.030  0.249E+01
 13.040  0.249E+01
 13.050  0.249E+01
 13.060  0.249E+01
 13.070  0.249E+01
 13.080  0.249E+01
 13.090  0.248E+01
 13.100  0.248E+01
 13.110  0.247E+01
 13.120  0.247E+01
 13.130  0.246E+01
 13.140  0.245E+01
 13.150  0.245E+01
 13.160  0.244E+01
 13.170  0.243E+01
 13.180  0.242E+01
 13.190  0.241E+01
 13.200  0.240E+01
 13.210  0.238E+01
 13.220  0.237E+01
 13.230  0.236E+01
 13.240  0.234E+01
 13.250  0.233E+01
 13.260  0.232E+01
 13.270  0.230E+01
 13.280  0.229E+01
 13.290  0.227E+01
 13.300  0.226E+01
 13.310  0.224E+01
 13.320  0.222E+01
 13.330  0.220E+01
 13.340  0.219E+01
 13.350  0.217E+01
 13.360  0.215E+01
 13.370  0.213E+01
 13.380  0.211E+01
 13.390  0.209E+01
 13.400  0.208E+01
 13.410  0.206E+01
 13.420  0.204E+01
 13.430  0.202E+01
 13.440  0.200E+01
 13.450  0.198E+01
 13.460  0.196E+01
 13.470  0.194E+01
 13.480  0.192E+01
 13.490  0.190E+01
 13.500  0.188E+01
 13.510  0.187E+01
 13.520  0.185E+01
 13.530  0.183E+01
 13.540  0.182E+01
 13.550  0.180E+01
 13.560  0.178E+01
 13.570  0.177E+01
 13.580  0.175E+01
 13.590  0.174E+01
 13.600  0.173E+01
 13.610  0.171E+01
 13.620  0.170E+01
 13.630  0.169E+01
 13.640  0.168E+01
 13.650  0.166E+01
 13.660  0.165E+01
 13.670  0.164E+01
 13.680  0.163E+01
 13.690  0.162E+01
 13.700  0.160E+01
 13.710  0.159E+01
 13.720  0.158E+01
 13.730  0.156E+01
 13.740  0.155E+01
 13.750  0.154E+01
 13.760  0.152E+01
 13.770  0.151E+01
 13.780  0.149E+01
 13.790  0.148E+01
 13.800  0.146E+01
 13.810  0.145E+01
 13.820  0.144E+01
 13.830  0.142E+01
 13.840  0.141E+01
 13.850  0.139E+01
 13.860  0.138E+01
 13.870  0.137E+01
 13.880  0.135E+01
 13.890  0.134E+01
 13.900  0.133E+01
 13.910  0.132E+01
 13.920  0.131E+01
 13.930  0.131E+01
 13.940  0.130E+01
 13.950  0.130E+01
 13.960  0.130E+01
 13.970  0.129E+01
 13.980  0.129E+01
 13.990  0.129E+01
 14.000  0.130E+01
 14.010  0.130E+01
 14.020  0.131E+01
 14.030  0.131E+01
 14.040  0.132E+01
 14.050  0.133E+01
 14.060  0.134E+01
 14.070  0.135E+01
 14.080  0.137E+01
 14.090  0.138E+01
 14.100  0.139E+01
 14.110  0.141E+01
 14.120  0.143E+01
 14.130  0.144E+01
 14.140  0.146E+01
 14.150  0.148E+01
 14.160  0.149E+01
 14.170  0.151E+01
 14.180  0.153E+01
 14.190  0.155E+01
 14.200  0.156E+01
 14.210  0.158E+01
 14.220  0.160E+01
 14.230  0.161E+01
 14.240  0.163E+01
 14.250  0.165E+01
 14.260  0.166E+01
 14.270  0.167E+01
 14.280  0.169E+01
 14.290  0.170E+01
 14.300  0.171E+01
 14.310  0.172E+01
 14.320  0.173E+01
 14.330  0.173E+01
 14.340  0.174E+01
 14.350  0.175E+01
 14.360  0.175E+01
 14.370  0.176E+01
 14.380  0.176E+01
 14.390  0.177E+01
 14.400  0.177E+01
 14.410  0.177E+01
 14.420  0.177E+01
 14.430  0.178E+01
 14.440  0.178E+01
 14.450  0.178E+01
 14.460  0.179E+01
 14.470  0.179E+01
 14.480  0.179E+01
 14.490  0.180E+01
 14.500  0.180E+01
 14.510  0.181E+01
 14.520  0.181E+01
 14.530  0.182E+01
 14.540  0.183E+01
 14.550  0.184E+01
 14.560  0.185E+01
 14.570  0.186E+01
 14.580  0.187E+01
 14.590  0.188E+01
 14.600  0.189E+01
 14.610  0.190E+01
 14.620  0.191E+01
 14.630  0.193E+01
 14.640  0.194E+01
 14.650  0.195E+01
 14.660  0.196E+01
 14.670  0.198E+01
 14.680  0.199E+01
 14.690  0.200E+01
 14.700  0.202E+01
 14.710  0.203E+01
 14.720  0.205E+01
 14.730  0.206E+01
 14.740  0.208E+01
 14.750  0.209E+01
 14.760  0.211E+01
 14.770  0.212E+01
 14.780  0.214E+01
 14.790  0.215E+01
 14.800  0.217E+01
 14.810  0.219E+01
 14.820  0.221E+01
 14.830  0.223E+01
 14.840  0.225E+01
 14.850  0.227E+01
 14.860  0.229E+01
 14.870  0.231E+01
 14.880  0.233E+01
 14.890  0.235E+01
 14.900  0.237E+01
 14.910  0.239E+01
 14.920  0.242E+01
 14.930  0.244E+01
 14.940  0.246E+01
 14.950  0.248E+01
 14.960  0.250E+01
 14.970  0.252E+01
 14.980  0.254E+01
 14.990  0.256E+01
 15.000  0.258E+01
 15.010  0.260E+01
 15.020  0.262E+01
 15.030  0.264E+01
 15.040  0.265E+01
 15.050  0.267E+01
 15.060  0.268E+01
 15.070  0.269E+01
 15.080  0.270E+01
 15.090  0.271E+01
 15.100  0.272E+01
 15.110  0.273E+01
 15.120  0.273E+01
 15.130  0.274E+01
 15.140  0.275E+01
 15.150  0.275E+01
 15.160  0.275E+01
 15.170  0.276E+01
 15.180  0.276E+01
 15.190  0.276E+01
 15.200  0.276E+01
 15.210  0.276E+01
 15.220  0.276E+01
 15.230  0.275E+01
 15.240  0.275E+01
 15.250  0.275E+01
 15.260  0.274E+01
 15.270  0.274E+01
 15.280  0.273E+01
 15.290  0.272E+01
 15.300  0.271E+01
 15.310  0.270E+01
 15.320  0.269E+01
 15.330  0.268E+01
 15.340  0.267E+01
 15.350  0.265E+01
 15.360  0.264E+01
 15.370  0.262E+01
 15.380  0.260E+01
 15.390  0.258E+01
 15.400  0.256E+01
 15.410  0.254E+01
 15.420  0.251E+01
 15.430  0.249E+01
 15.440  0.247E+01
 15.450  0.244E+01
 15.460  0.241E+01
 15.470  0.239E+01
 15.480  0.236E+01
 15.490  0.233E+01
 15.500  0.230E+01
 15.510  0.227E+01
 15.520  0.224E+01
 15.530  0.222E+01
 15.540  0.219E+01
 15.550  0.216E+01
 15.560  0.214E+01
 15.570  0.211E+01
 15.580  0.208E+01
 15.590  0.206E+01
 15.600  0.204E+01
 15.610  0.201E+01
 15.620  0.199E+01
 15.630  0.197E+01
 15.640  0.195E+01
 15.650  0.193E+01
 15.660  0.191E+01
 15.670  0.190E+01
 15.680  0.188E+01
 15.690  0.187E+01
 15.700  0.186E+01
 15.710  0.184E+01
 15.720  0.183E+01
 15.730  0.182E+01
 15.740  0.182E+01
 15.750  0.181E+01
 15.760  0.180E+01
 15.770  0.180E+01
 15.780  0.179E+01
 15.790  0.179E+01
 15.800  0.179E+01
 15.810  0.179E+01
 15.820  0.179E+01
 15.830  0.179E+01
 15.840  0.179E+01
 15.850  0.179E+01
 15.860  0.179E+01
 15.870  0.179E+01
 15.880  0.180E+01
 15.890  0.180E+01
 15.900  0.180E+01
 15.910  0.181E+01
 15.920  0.181E+01
 15.930  0.182E+01
 15.940  0.182E+01
 15.950  0.183E+01
 15.960  0.184E+01
 15.970  0.184E+01
 15.980  0.185E+01
 15.990  0.186E+01
 16.000  0.186E+01
 16.010  0.187E+01
 16.020  0.188E+01
 16.030  0.188E+01
 16.040  0.189E+01
 16.050  0.190E+01
 16.060  0.191E+01
 16.070  0.191E+01
 16.080  0.192E+01
 16.090  0.193E+01
 16.100  0.194E+01
 16.110  0.194E+01
 16.120  0.195E+01
 16.130  0.196E+01
 16.140  0.196E+01
 16.150  0.197E+01
 16.160  0.197E+01
 16.170  0.198E+01
 16.180  0.198E+01
 16.190  0.198E+01
 16.200  0.198E+01
 16.210  0.198E+01
 16.220  0.198E+01
 16.230  0.198E+01
 16.240  0.198E+01
 16.250  0.197E+01
 16.260  0.197E+01
 16.270  0.196E+01
 16.280  0.195E+01
 16.290  0.194E+01
 16.300  0.193E+01
 16.310  0.191E+01
 16.320  0.190E+01
 16.330  0.188E+01
 16.340  0.187E+01
 16.350  0.185E+01
 16.360  0.183E+01
 16.370  0.181E+01
 16.380  0.179E+01
 16.390  0.177E+01
 16.400  0.174E+01
 16.410  0.172E+01
 16.420  0.170E+01
 16.430  0.167E+01
 16.440  0.165E+01
 16.450  0.163E+01
 16.460  0.161E+01
 16.470  0.158E+01
 16.480  0.156E+01
 16.490  0.154E+01
 16.500  0.152E+01
 16.510  0.150E+01
 16.520  0.147E+01
 16.530  0.145E+01
 16.540  0.143E+01
 16.550  0.141E+01
 16.560  0.139E+01
 16.570  0.137E+01
 16.580  0.135E+01
 16.590  0.133E+01
 16.600  0.131E+01
 16.610  0.129E+01
 16.620  0.127E+01
 16.630  0.125E+01
 16.640  0.123E+01
 16.650  0.121E+01
 16.660  0.119E+01
 16.670  0.117E+01
 16.680  0.115E+01
 16.690  0.113E+01
 16.700  0.111E+01
 16.710  0.109E+01
 16.720  0.107E+01
 16.730  0.105E+01
 16.740  0.104E+01
 16.750  0.102E+01
 16.760  0.100E+01
 16.770  0.982E+00
 16.780  0.966E+00
 16.790  0.950E+00
 16.800  0.934E+00
 16.810  0.920E+00
 16.820  0.906E+00
 16.830  0.892E+00
 16.840  0.880E+00
 16.850  0.869E+00
 16.860  0.857E+00
 16.870  0.847E+00
 16.880  0.837E+00
 16.890  0.827E+00
 16.900  0.820E+00
 16.910  0.811E+00
 16.920  0.804E+00
 16.930  0.796E+00
 16.940  0.790E+00
 16.950  0.783E+00
 16.960  0.778E+00
 16.970  0.773E+00
 16.980  0.767E+00
 16.990  0.763E+00
 17.000  0.758E+00
 17.010  0.753E+00
 17.020  0.748E+00
 17.030  0.744E+00
 17.040  0.739E+00
 17.050  0.734E+00
 17.060  0.729E+00
 17.070  0.725E+00
 17.080  0.720E+00
 17.090  0.715E+00
 17.100  0.710E+00
 17.110  0.706E+00
 17.120  0.699E+00
 17.130  0.694E+00
 17.140  0.690E+00
 17.150  0.685E+00
 17.160  0.680E+00
 17.170  0.676E+00
 17.180  0.671E+00
 17.190  0.666E+00
 17.200  0.662E+00
 17.210  0.658E+00
 17.220  0.654E+00
 17.230  0.650E+00
 17.240  0.648E+00
 17.250  0.645E+00
 17.260  0.643E+00
 17.270  0.640E+00
 17.280  0.639E+00
 17.290  0.637E+00
 17.300  0.636E+00
 17.310  0.636E+00
 17.320  0.636E+00
 17.330  0.636E+00
 17.340  0.635E+00
 17.350  0.637E+00
 17.360  0.637E+00
 17.370  0.638E+00
 17.380  0.639E+00
 17.390  0.641E+00
 17.400  0.642E+00
 17.410  0.644E+00
 17.420  0.645E+00
 17.430  0.647E+00
 17.440  0.648E+00
 17.450  0.650E+00
 17.460  0.651E+00
 17.470  0.652E+00
 17.480  0.651E+00
 17.490  0.652E+00
 17.500  0.652E+00
 17.510  0.652E+00
 17.520  0.651E+00
 17.530  0.650E+00
 17.540  0.649E+00
 17.550  0.648E+00
 17.560  0.645E+00
 17.570  0.642E+00
 17.580  0.639E+00
 17.590  0.635E+00
 17.600  0.632E+00
 17.610  0.628E+00
 17.620  0.623E+00
 17.630  0.618E+00
 17.640  0.613E+00
 17.650  0.609E+00
 17.660  0.603E+00
 17.670  0.598E+00
 17.680  0.592E+00
 17.690  0.587E+00
 17.700  0.582E+00
 17.710  0.578E+00
 17.720  0.573E+00
 17.730  0.568E+00
 17.740  0.565E+00
 17.750  0.562E+00
 17.760  0.559E+00
 17.770  0.557E+00
 17.780  0.554E+00
 17.790  0.552E+00
 17.800  0.552E+00
 17.810  0.552E+00
 17.820  0.552E+00
 17.830  0.553E+00
 17.840  0.554E+00
 17.850  0.556E+00
 17.860  0.558E+00
 17.870  0.560E+00
 17.880  0.563E+00
 17.890  0.567E+00
 17.900  0.570E+00
 17.910  0.574E+00
 17.920  0.578E+00
 17.930  0.581E+00
 17.940  0.585E+00
 17.950  0.589E+00
 17.960  0.593E+00
 17.970  0.596E+00
 17.980  0.599E+00
 17.990  0.602E+00
 18.000  0.605E+00
 18.010  0.606E+00
 18.020  0.608E+00
 18.030  0.609E+00
 18.040  0.609E+00
 18.050  0.609E+00
 18.060  0.608E+00
 18.070  0.607E+00
 18.080  0.605E+00
 18.090  0.602E+00
 18.100  0.599E+00
 18.110  0.595E+00
 18.120  0.591E+00
 18.130  0.586E+00
 18.140  0.581E+00
 18.150  0.575E+00
 18.160  0.569E+00
 18.170  0.563E+00
 18.180  0.556E+00
 18.190  0.550E+00
 18.200  0.543E+00
 18.210  0.536E+00
 18.220  0.529E+00
 18.230  0.522E+00
 18.240  0.515E+00
 18.250  0.508E+00
 18.260  0.502E+00
 18.270  0.495E+00
 18.280  0.489E+00
 18.290  0.483E+00
 18.300  0.478E+00
 18.310  0.473E+00
 18.320  0.468E+00
 18.330  0.464E+00
 18.340  0.460E+00
 18.350  0.457E+00
 18.360  0.454E+00
 18.370  0.451E+00
 18.380  0.449E+00
 18.390  0.448E+00
 18.400  0.446E+00
 18.410  0.446E+00
 18.420  0.445E+00
 18.430  0.445E+00
 18.440  0.445E+00
 18.450  0.446E+00
 18.460  0.448E+00
 18.470  0.449E+00
 18.480  0.451E+00
 18.490  0.454E+00
 18.500  0.455E+00
 18.510  0.459E+00
 18.520  0.461E+00
 18.530  0.464E+00
 18.540  0.467E+00
 18.550  0.470E+00
 18.560  0.473E+00
 18.570  0.475E+00
 18.580  0.478E+00
 18.590  0.482E+00
 18.600  0.485E+00
 18.610  0.487E+00
 18.620  0.489E+00
 18.630  0.492E+00
 18.640  0.494E+00
 18.650  0.496E+00
 18.660  0.497E+00
 18.670  0.499E+00
 18.680  0.501E+00
 18.690  0.501E+00
 18.700  0.502E+00
 18.710  0.503E+00
 18.720  0.503E+00
 18.730  0.503E+00
 18.740  0.503E+00
 18.750  0.501E+00
 18.760  0.500E+00
 18.770  0.499E+00
 18.780  0.496E+00
 18.790  0.494E+00
 18.800  0.491E+00
 18.810  0.488E+00
 18.820  0.484E+00
 18.830  0.478E+00
 18.840  0.473E+00
 18.850  0.467E+00
 18.860  0.460E+00
 18.870  0.452E+00
 18.880  0.445E+00
 18.890  0.436E+00
 18.900  0.426E+00
 18.910  0.416E+00
 18.920  0.405E+00
 18.930  0.394E+00
 18.940  0.382E+00
 18.950  0.369E+00
 18.960  0.356E+00
 18.970  0.342E+00
 18.980  0.328E+00
 18.990  0.314E+00
 19.000  0.299E+00
 19.010  0.284E+00
 19.020  0.270E+00
 19.030  0.255E+00
 19.040  0.240E+00
 19.050  0.225E+00
 19.060  0.211E+00
 19.070  0.196E+00
 19.080  0.183E+00
 19.090  0.169E+00
 19.100  0.156E+00
 19.110  0.143E+00
 19.120  0.131E+00
 19.130  0.120E+00
 19.140  0.109E+00
 19.150  0.989E-01
 19.160  0.894E-01
 19.170  0.804E-01
 19.180  0.720E-01
 19.190  0.643E-01
 19.200  0.572E-01
 19.210  0.507E-01
 19.220  0.448E-01
 19.230  0.393E-01
 19.240  0.344E-01
 19.250  0.300E-01
 19.260  0.260E-01
 19.270  0.225E-01
 19.280  0.194E-01
 19.290  0.166E-01
 19.300  0.142E-01
 19.310  0.121E-01
 19.320  0.103E-01
 19.330  0.865E-02
 19.340  0.727E-02
 19.350  0.608E-02
 19.360  0.506E-02
 19.370  0.420E-02
 19.380  0.347E-02
 19.390  0.285E-02
 19.400  0.234E-02
 19.410  0.190E-02
 19.420  0.155E-02
 19.430  0.125E-02
 19.440  0.101E-02
 19.450  0.806E-03
 19.460  0.643E-03
 19.470  0.510E-03
 19.480  0.404E-03
 19.490  0.318E-03
 19.500  0.249E-03
 19.510  0.194E-03
 19.520  0.151E-03
 19.530  0.117E-03
 19.540  0.898E-04
 19.550  0.687E-04
 19.560  0.524E-04
 19.570  0.398E-04
 19.580  0.301E-04
 19.590  0.226E-04
 19.600  0.170E-04
 19.610  0.126E-04
 19.620  0.938E-05
 19.630  0.693E-05
 19.640  0.510E-05
 19.650  0.373E-05
 19.660  0.272E-05
